trial_global_index,level,block,block_name,trial_in_block,trial_type,standard_category,stimulus_category,stimulus_file,stimulus_family,stimulus_meaning,frequency_class,omitted_category,target_side,visual_distractor_pos,visual_distractor_offset_s,visual_distractor_onset_s,visual_distractor_onset_global_s,visual_distractor_offset_time_s,visual_distractor_offset_global_s,auditory_class,auditory_offset_s,paired_tone_file,paired_tone_onset_s,paired_tone_onset_global_s,visual_onset_s,visual_onset_global_s,visual_offset_s,visual_offset_global_s,response_window_end_s,response_window_end_global_s,baseline_onset_global_s,post_mask_start_s,post_mask_start_global_s,post_mask_duration_s,post_mask_end_s,post_mask_end_global_s,corollary_mode,cd_condition,cd_feedback_onset_s,cd_feedback_onset_global_s,corollary_onset_s,corollary_onset_global_s,cd_feedback_delay_from_response_s,corollary_delay_from_response_s,reversal_phase,correct_response,response,response_onset_global_s,rt_s,accuracy,trial_start_global_s,trial_end_global_s,trial_duration_s,phase,mixed_block_index
1,2,0,practice_level2,1,active,face_present,shape_absent,nknz_bow.png,shape,ambiguous,rare,face_absent,right,top,,0.24974250001832843,7.766312042018399,0.4996431670151651,8.016212541959248,deviant,-0.0977067373176711,deviant.wav,0.14333075005561113,7.659900167025626,0.24974250001832843,7.766312042018399,0.4996431670151651,8.016212541959248,0.9500047080218792,8.46657316701021,,0.9497425000183284,8.466574082965963,0.3120576792691396,1.261800179287468,8.778973291977309,delayed,cd_delayed,0.9838339580455795,8.500403124955483,0.9838339580455795,8.500403124955483,0.3665350000374019,,post_reversal,left,right,8.134145166957751,0.36755645798984915,0,7.427228583022952,8.778973291977309,1.3517447089543566,practice,
2,2,0,practice_level2,2,active,face_present,face_present,fpa06.png,face,meaningful,frequent,face_absent,left,bottom,,0.2497907920042053,9.116203624987975,0.49119220895227045,9.357604791992344,standard,0.004158894218197373,std.wav,0.2498458749614656,9.11625850002747,0.2497907920042053,9.116203624987975,0.49119220895227045,9.357604791992344,0.949833916965872,9.816245874972083,,0.9497907920042052,9.816246957983822,0.8726024147056521,1.8223932067098574,10.689105749945156,delayed,cd_delayed,1.0842071670340374,9.950619791983627,1.0842071670340374,9.950619791983627,0.46480566705577075,,post_reversal,right,left,9.48608179204166,0.36961070797406137,0,8.779147917055525,10.689105749945156,1.9099578328896314,practice,
3,2,0,practice_level2,3,active,face_present,face_present,fpa03.png,face,meaningful,frequent,face_absent,left,top,,0.24969537497963756,11.032907958026044,0.4915963750099763,11.274808416957967,standard,0.18690422547850927,std.wav,0.4270216659642756,11.210233582998626,0.24969537497963756,11.032907958026044,0.4915963750099763,11.274808416957967,0.9506967909401283,11.733908207970671,,0.9496953749796375,11.733909167000093,0.7017719611746058,1.6514673361542433,12.434850041987374,delayed,cd_delayed,1.419154040981084,12.202366124955006,1.419154040981084,12.202366124955006,,,post_reversal,right,,,,0,10.689257250051014,12.434850041987374,1.7455927919363603,practice,
4,2,0,practice_level2,4,active,face_present,face_present,fpa03.png,face,meaningful,frequent,face_absent,left,bottom,,0.2497620420763269,12.774574207956903,0.49973066698294133,13.024542249972,standard,0.15258567195104672,std.wav,0.39352087501902133,12.918332917033695,0.2497620420763269,12.774574207956903,0.49973066698294133,13.024542249972,0.9500664999941364,13.474877582979389,,0.9497620420763269,13.474878625012934,0.5256305045266791,1.475392546603006,14.00021879200358,delayed,cd_delayed,1.0444930840749294,13.569304791977629,1.0444930840749294,13.569304791977629,0.4726112090284005,,post_reversal,right,right,13.09696741704829,0.32211983297020197,1,12.434988624998368,14.00021879200358,1.5652301670052111,practice,
5,2,0,practice_level2,5,active,face_present,face_present,fpa10.png,face,meaningful,frequent,face_absent,left,bottom,,0.24210833408869803,14.33334949996788,0.49164416710846126,14.582885375013575,standard,0.17048910600785938,std.wav,0.411118125077337,14.502359375008382,0.24210833408869803,14.33334949996788,0.49164416710846126,14.582885375013575,0.9427939590532333,15.034034374984913,,0.942108334088698,15.034035332966596,0.21974167381786786,1.161850007906566,15.253454167046584,none,cd_none,,,,,,,post_reversal,right,right,14.686870542005636,0.3532554159173742,1,14.000363125000149,15.253454167046584,1.2530910420464352,practice,
6,2,0,practice_level2,6,active,face_present,shape_present,knz_wob.png,shape,meaningful,rare,face_absent,right,top,,0.249999166931957,15.59121204202529,0.4917952499818057,15.833007917040959,standard,-0.045741272698259616,std.wav,0.19469154195394367,15.53590424999129,0.249999166931957,15.59121204202529,0.4917952499818057,15.833007917040959,0.9501774170203134,16.291389832971618,,0.949999166931957,16.291390958009288,0.33891747692887125,1.2889166438608282,16.630878917058,delayed,cd_delayed,1.0171491249930114,16.35836220800411,1.0171491249930114,16.35836220800411,0.3283050829777494,,post_reversal,right,left,16.030359499971382,0.43884487508330494,0,15.253620208008215,16.630878917058,1.3772587090497836,practice,
7,2,1,mixed01_level2_block01,1,active,shape_absent,shape_absent,nknz_wob.png,shape,ambiguous,frequent,face_absent,right,top,,0.24907325010281056,47.29926062503364,0.4993437920929864,47.54953104199376,standard,-0.1635885910890591,std.wav,0.07648875005543232,47.12667658296414,0.24907325010281056,47.29926062503364,0.4993437920929864,47.54953104199376,0.9500357080250978,48.00022220797837,,0.9490732501028105,48.00022320798598,0.557404972859045,1.5064782229618556,48.55675741704181,delayed,cd_delayed,1.0253477500518784,48.07553499995265,1.0253477500518784,48.07553499995265,0.37360120797529817,,pre_reversal,right,right,47.702203750028275,0.40267329197376966,1,46.95913550001569,48.55675741704181,1.5976219170261174,main,1
8,2,1,mixed01_level2_block01,2,active,shape_absent,shape_present,knz_wob.png,shape,meaningful,rare,face_absent,left,bottom,,0.25015466706827283,48.89972608303651,0.5000156670575961,49.14958700002171,standard,0.2235481881445044,std.wav,0.46433508303016424,49.11390624998603,0.25015466706827283,48.89972608303651,0.5000156670575961,49.14958700002171,0.9510159170022234,49.600586291984655,,0.9501546670682728,49.60058729199227,0.4234544261193255,1.3736090931875982,50.02366512501612,delayed,cd_delayed,1.1690570000791922,49.818628042005,1.1690570000791922,49.818628042005,0.4303344580112025,,pre_reversal,left,left,49.3885954170255,0.4885678749997169,1,48.55771329195704,50.02366512501612,1.46595183305908,main,1
9,2,1,mixed01_level2_block01,3,active,shape_absent,face_present,fpa06.png,face,meaningful,rare,face_absent,left,bottom,,0.24214850005228072,50.35846429201774,0.4915903330547735,50.60790583305061,standard,-0.22807701171439748,std.wav,0.01249895803630352,50.12881537503563,0.24214850005228072,50.35846429201774,0.4915903330547735,50.60790583305061,0.9424602499930188,51.05877550004516,,0.9421485000522807,51.05877683300059,0.8043402218683031,1.7464887219205838,51.863824625033885,none,cd_none,,,,,,,pre_reversal,left,left,50.72511929203756,0.3663876249920577,1,50.02382474998012,51.863824625033885,1.8399998750537634,main,1
10,2,1,mixed01_level2_block01,4,active,shape_absent,shape_absent,nknz_bow.png,shape,ambiguous,frequent,face_absent,right,top,,0.24870666593778878,52.19925158296246,0.49031991604715586,52.44086458301172,standard,-0.169057468099912,std.wav,0.07183795794844627,52.02238316705916,0.24870666593778878,52.19925158296246,0.49031991604715586,52.44086458301172,0.9497202499769628,52.90026416699402,,0.9487066659377887,52.90026508294977,0.3783486725759141,1.327055338513703,53.278416667017154,none,cd_none,,,,,,,pre_reversal,right,right,52.64801029197406,0.4484913341002539,1,51.86398274998646,53.278416667017154,1.414433917030692,main,1
11,2,1,mixed01_level2_block01,5,active,shape_absent,shape_absent,nknz_wob.png,shape,ambiguous,frequent,face_absent,right,top,,0.24187133298255503,53.60810237505939,0.483350291964598,53.84958070795983,deviant,-0.1469085971109017,deviant.wav,0.0934189580148086,53.45965008297935,0.24187133298255503,53.60810237505939,0.483350291964598,53.84958070795983,0.9425130420131609,54.30874304205645,,0.941871332982555,54.30874400003813,0.2729692054931142,1.214840538475669,54.58205399999861,none,cd_none,,,,,,,pre_reversal,right,right,53.993814083049074,0.3854346669977531,1,53.27858645794913,54.58205399999861,1.303467542049475,main,1
12,2,1,mixed01_level2_block01,6,active,shape_absent,shape_absent,nknz_wob.png,shape,ambiguous,frequent,face_absent,right,top,,0.25000108405947685,54.924572707968764,0.4913191670784727,55.16589062497951,standard,0.14616265789487504,std.wav,0.3863768340088427,55.06094816699624,0.25000108405947685,54.924572707968764,0.4913191670784727,55.16589062497951,0.9507732089841738,55.62534408294596,,0.9500010840594768,55.62534499994945,0.22306690218348552,1.1730679862429623,55.84779425000306,delayed,cd_delayed,1.130908542079851,55.80548070801888,1.130908542079851,55.80548070801888,0.47875783301424235,,pre_reversal,right,right,55.32699125004001,0.40214962500613183,1,54.58224875002634,55.84779425000306,1.2655454999767244,main,1
13,2,1,mixed01_level2_block01,7,active,shape_absent,shape_absent,nknz_wob.png,shape,ambiguous,frequent,face_absent,right,bottom,,0.24185637501068413,56.17475645802915,0.48329179105348885,56.416192166972905,standard,-0.13299170561752954,std.wav,0.10801483306568116,56.040915332967415,0.24185637501068413,56.17475645802915,0.48329179105348885,56.416192166972905,0.9426104580052197,56.87551029201131,,0.9418563750106841,56.87551129201893,0.7852044566294447,1.7270608316401288,57.66097545798402,delayed,cd_delayed,1.1192204580875114,57.05212100001518,1.1192204580875114,57.05212100001518,0.4704682920128107,,pre_reversal,right,right,56.58192895795219,0.4068957910640165,1,55.84792920795735,57.66097545798402,1.813046250026673,main,1
14,2,1,mixed01_level2_block01,8,active,shape_absent,shape_present,knz_wob.png,shape,meaningful,rare,face_absent,left,bottom,,0.2494288340676576,57.99955566704739,0.49086004204582423,58.24098654196132,standard,0.16305751450462164,std.wav,0.40403325005900115,58.15415962494444,0.2494288340676576,57.99955566704739,0.49086004204582423,58.24098654196132,0.9501958340406418,58.70032166701276,,0.9494288340676575,58.70032262499444,0.3822695161710336,1.3316983502386912,59.08251954196021,delayed,cd_delayed,1.0787287090206519,58.828855582978576,1.0787287090206519,58.828855582978576,0.3372826250270009,,pre_reversal,left,left,58.491837166948244,0.4920172499259934,1,57.661126374965534,59.08251954196021,1.421393166994676,main,1
15,2,1,mixed01_level2_block01,9,active,shape_absent,shape_absent,nknz_bow.png,shape,ambiguous,frequent,face_absent,right,bottom,,0.24994158407207578,59.42454583302606,0.4999098750995472,59.67451391695067,standard,0.1895320712196067,std.wav,0.42973604204598814,59.604339667013846,0.24994158407207578,59.42454583302606,0.4999098750995472,59.67451391695067,0.9502653339877725,60.12486862496007,,0.9499415840720757,60.12486954196356,0.8512381603493522,1.801179744421428,60.976196832954884,delayed,cd_delayed,0.9965760840568691,60.17117999994662,0.9965760840568691,60.17117999994662,0.3005127919605002,,pre_reversal,right,right,59.87094520800747,0.4461217080242932,1,59.08267179201357,60.976196832954884,1.893525040941313,main,1
16,2,1,mixed01_level2_block01,10,active,shape_absent,shape_absent,nknz_wob.png,shape,ambiguous,frequent,face_absent,right,top,,0.2419615420512855,61.22508179198485,0.49146166699938476,61.47458216699306,blank,,,,,0.2419615420512855,61.22508179198485,0.49146166699938476,61.47458216699306,0.9429430830059573,61.92606262501795,,0.9419615420512855,61.92606354202144,0.26912832724440156,1.211089869295687,62.19476691703312,delayed,cd_delayed,0.9440697920508683,61.927190667018294,0.9440697920508683,61.927190667018294,0.3055090419948101,,pre_reversal,right,left,61.62195583304856,0.39659920800477266,0,60.97666033299174,62.19476691703312,1.2181065840413794,main,1
17,2,1,mixed01_level2_block01,11,active,shape_absent,shape_absent,nknz_wob.png,shape,ambiguous,frequent,face_absent,right,top,,0.2421687919413671,62.52508329204284,0.49165812495630234,62.77457287500147,standard,0.13876871663707713,std.wav,0.37984399998094887,62.66275925002992,0.2421687919413671,62.52508329204284,0.49165812495630234,62.77457287500147,0.9421846669865772,63.22509845800232,,0.942168791941367,63.22509941703174,0.8819582993503492,1.8241270912917162,64.10784770804457,delayed,cd_delayed,1.0421642089495435,63.32507862499915,1.0421642089495435,63.32507862499915,0.4615191250341013,,pre_reversal,right,left,62.863826957996935,0.33847629197407514,0,62.194883208023384,64.10784770804457,1.9129645000211895,main,1
18,2,1,mixed01_level2_block01,12,active,shape_absent,shape_absent,nknz_wob.png,shape,ambiguous,frequent,face_absent,right,top,,0.24976745794992894,64.44959974999074,0.49123083299491554,64.69106287497561,deviant,0.1359739345470964,deviant.wav,0.3769154999172315,64.57674762501847,0.24976745794992894,64.44959974999074,0.49123083299491554,64.69106287497561,0.950478499988094,65.15031004196499,,0.9497674579499289,65.1503110829508,0.6624249340434153,1.6121923919933443,65.81303774996195,delayed,cd_delayed,0.9505704999901354,65.15040283300914,0.9505704999901354,65.15040283300914,0.36094520799815655,,pre_reversal,right,left,64.78972241701558,0.33985783404204994,0,64.10801591700874,65.81303774996195,1.7050218329532072,main,1
19,2,1,mixed01_level2_block01,13,active,shape_absent,shape_absent,nknz_bow.png,shape,ambiguous,frequent,face_absent,right,bottom,,0.24969720793887973,66.14952704205643,0.49143137503415346,66.39126099995337,deviant,-0.2260346210769616,deviant.wav,0.014421624946407974,65.91425170795992,0.24969720793887973,66.14952704205643,0.49143137503415346,66.39126099995337,0.9500152909895405,66.84984487504698,,0.9496972079388797,66.84984625002835,0.2714658851477176,1.2211630930865973,67.1210257919738,delayed,cd_delayed,0.9501217909855768,66.84995145804714,0.9501217909855768,66.84995145804714,0.534535082988441,,pre_reversal,right,left,66.31570745795034,0.1658895000582561,0,65.8131877919659,67.1210257919738,1.307838000007905,main,1
20,2,1,mixed01_level2_block01,14,active,shape_absent,shape_absent,nknz_wob.png,shape,ambiguous,frequent,face_absent,right,bottom,,0.2499726670794189,67.45788812497631,0.49149320798460394,67.69940937496722,standard,-0.17075919631915742,std.wav,0.07015037501696497,67.27806608297396,0.2499726670794189,67.45788812497631,0.49149320798460394,67.69940937496722,0.9504137920448557,68.15832854202017,,0.9499726670794189,68.15832950000186,0.65745178419486,1.6074244512742788,68.81587425002363,delayed,cd_delayed,0.9505142500856891,68.15842966700438,0.9505142500856891,68.15842966700438,0.3410132920835167,,pre_reversal,right,left,67.8176937920507,0.3595282909227535,0,67.12120587495156,68.81587425002363,1.6946683750720695,main,1
21,2,1,mixed01_level2_block01,15,active,shape_absent,face_present,fpa19.png,face,meaningful,rare,face_absent,left,top,,0.24969829095061868,69.15790783299599,0.4915617499500513,69.39977079199161,standard,-0.20110476426395663,std.wav,0.03912483295425773,68.94733391702175,0.24969829095061868,69.15790783299599,0.4915617499500513,69.39977079199161,0.9504560000495985,69.8586644170573,,0.9496982909506186,69.85866537503898,0.7069004693168375,1.6565987602674561,70.56569312501233,delayed,cd_delayed,1.0398373330244794,69.94804637494963,1.0398373330244794,69.94804637494963,0.45160733303055167,,pre_reversal,left,left,69.49670795805287,0.3385317090433091,1,68.81602562498301,70.56569312501233,1.749667500029318,main,1
22,2,1,mixed01_level2_block01,16,active,shape_absent,shape_absent,nknz_wob.png,shape,ambiguous,frequent,face_absent,right,top,,0.24965262494515628,70.90789466700517,0.4913958749966696,71.14963783300482,standard,-0.2367734822600027,std.wav,0.0041639580158516765,70.66240649996325,0.24965262494515628,70.90789466700517,0.4913958749966696,71.14963783300482,0.9498268329771236,71.6080682920292,,0.9496526249451562,71.60806929203682,0.5161167505294086,1.4657693754745649,72.1243549999781,delayed,cd_delayed,1.1069767909357324,71.76521900005173,1.1069767909357324,71.76521900005173,0.4408275409368798,,pre_reversal,right,left,71.32467720797285,0.41649662505369633,0,70.56583816697821,72.1243549999781,1.558516832999885,main,1
23,2,1,mixed01_level2_block01,17,active,shape_absent,shape_absent,nknz_wob.png,shape,ambiguous,frequent,face_absent,right,top,,0.24969500000588596,72.46621300000697,0.4914779580431059,72.70799599995371,standard,0.05633846344645732,std.wav,0.2972360000712797,72.51375404198188,0.24969500000588596,72.46621300000697,0.4914779580431059,72.70799599995371,0.9505242080194876,73.16704195796046,,0.9496950000058859,73.16704312502407,0.43805369636007296,1.3877486963659589,73.60516591696069,delayed,cd_delayed,0.9506485420279205,73.16716700000688,0.9506485420279205,73.16716700000688,0.3627582089975476,,pre_reversal,right,left,72.80469254194759,0.3381953330244869,0,72.12460633297451,73.60516591696069,1.480559583986178,main,1
24,2,1,mixed01_level2_block01,18,active,shape_absent,shape_absent,nknz_wob.png,shape,ambiguous,frequent,face_absent,right,bottom,,0.24178091704379767,73.8576750420034,0.4840528341010213,74.0999467499787,blank,,,,,0.24178091704379767,73.8576750420034,0.4840528341010213,74.0999467499787,0.942378459032625,74.55827170796692,,0.9417809170437976,74.55827270797454,0.4800924166450461,1.4218733336888438,75.03852279204875,delayed,cd_delayed,1.0081167500466108,74.6240115830442,1.0081167500466108,74.6240115830442,0.3747497909935191,,pre_reversal,right,left,74.24954095797148,0.39158604200929403,0,73.605330875027,75.03852279204875,1.4331919170217589,main,1
25,2,1,mixed01_level2_block01,19,active,shape_absent,shape_absent,nknz_bow.png,shape,ambiguous,frequent,face_absent,right,bottom,,0.24238604202400893,75.36664412496611,0.49194366694428027,75.61620141705498,standard,0.22540814366536055,std.wav,0.46583095903042704,75.59008870797697,0.24238604202400893,75.36664412496611,0.49194366694428027,75.61620141705498,0.9429315839661285,76.06718858296517,,0.9423860420240089,76.06718949996866,0.8031675662504443,1.7455536082744532,76.87076279195026,delayed,cd_delayed,1.0159954170230776,76.14025295805186,1.0159954170230776,76.14025295805186,0.4129789579892531,,pre_reversal,right,left,75.72754587500822,0.3606304170098156,0,75.03863983298652,76.87076279195026,1.832122958963737,main,1
26,2,1,mixed01_level2_block01,20,active,shape_absent,shape_absent,nknz_wob.png,shape,ambiguous,frequent,face_absent,right,bottom,,0.2493416250217706,77.20779295801185,0.4911986659280956,77.44964975002222,standard,-0.0688584700852202,std.wav,0.1715673329308629,77.13001862505917,0.2493416250217706,77.20779295801185,0.4911986659280956,77.44964975002222,0.9503302499651909,77.90878075000364,,0.9493416250217706,77.90878166700713,0.42815978988256836,1.377501414904339,78.33614895795472,delayed,cd_delayed,0.9504278330132365,77.9088798329467,0.9504278330132365,77.9088798329467,0.4756732500391081,,pre_reversal,right,left,77.43348145799246,0.22541295795235783,0,76.8709532499779,78.33614895795472,1.465195707976818,main,1
27,2,1,mixed01_level2_block01,21,active,shape_absent,shape_absent,nknz_wob.png,shape,ambiguous,frequent,face_absent,right,bottom,,0.24174275004770607,78.66655774996616,0.49137941596563905,78.91619454196189,standard,-0.12041330191515012,std.wav,0.1197565000038594,78.54457162495237,0.24174275004770607,78.66655774996616,0.49137941596563905,78.91619454196189,0.9422506659757346,79.36706504202448,,0.941742750047706,79.36706608301029,0.6518622807293324,1.5936050307770384,80.01943237497471,delayed,cd_delayed,0.9423444579588249,79.36715974996332,0.9423444579588249,79.36715974996332,0.4179413749370724,,pre_reversal,right,left,78.94950883300044,0.28266033297404647,0,78.33628970803693,80.01943237497471,1.6831426669377834,main,1
28,2,1,mixed01_level2_block01,22,active,shape_absent,shape_absent,nknz_bow.png,shape,ambiguous,frequent,face_absent,right,top,,0.24954962509218603,80.35781575005967,0.4913559590931982,80.59962183295283,standard,-0.10685588174087937,std.wav,0.1333765840390697,80.24164266698062,0.24954962509218603,80.35781575005967,0.4913559590931982,80.59962183295283,0.9500062090810388,81.05827141704503,,0.949549625092186,81.0582728330046,0.3856119978357355,1.3351616229279215,81.44408649997786,delayed,cd_delayed,0.9501110840355977,81.0583770830417,0.9501110840355977,81.0583770830417,0.4099449999630451,,pre_reversal,right,left,80.6487175830407,0.2906164589803666,0,80.01959587505553,81.44408649997786,1.4244906249223277,main,1
29,2,1,mixed01_level2_block01,23,active,shape_absent,shape_absent,nknz_wob.png,shape,ambiguous,frequent,face_absent,right,top,,0.24996587494388223,81.78287029196508,0.49998220801353455,82.0328862919705,standard,-0.1888524325246974,std.wav,0.05139179201796651,81.58429595804773,0.24996587494388223,81.78287029196508,0.49998220801353455,82.0328862919705,0.9503187499940395,82.48322229203768,,0.9499658749438822,82.48322320799343,0.23562362768035583,1.185589502624238,82.71936083305627,none,cd_none,,,,,,,pre_reversal,right,left,82.01745341694914,0.23430445801932365,0,81.44425554201007,82.71936083305627,1.2751052910462022,main,1
30,2,1,mixed01_level2_block01,24,active,shape_absent,face_present,fpa04.png,face,meaningful,rare,face_absent,left,bottom,,0.2418180829845369,83.04968991701026,0.48329254204872996,83.2911641249666,standard,-0.16019489522517677,std.wav,0.08004516700748354,82.88791725004558,0.2418180829845369,83.04968991701026,0.48329254204872996,83.2911641249666,0.9424596250755712,83.75033091695514,,0.9418180829845368,83.7503318330273,0.5276667675080702,1.469484850492607,84.2778947079787,none,cd_none,,,,,,,pre_reversal,left,right,83.43041629204527,0.38045479205902666,0,82.71952041704208,84.2778947079787,1.5583742909366265,main,1
31,2,1,mixed01_level2_block01,25,active,shape_absent,shape_absent,nknz_wob.png,shape,ambiguous,frequent,face_absent,right,top,,0.24958958302158862,84.61614508298226,0.49958166701253504,84.86613704205956,standard,-0.23294492174232578,std.wav,0.007288500084541738,84.37384395801928,0.24958958302158862,84.61614508298226,0.49958166701253504,84.86613704205956,0.9503262920770794,85.31688079203013,,0.9495895830215886,85.31688191695139,0.7688749497917398,1.7184645328133283,86.08603091700934,delayed,cd_delayed,0.9504155000904575,85.31697087502107,0.9504155000904575,85.31697087502107,0.42401779198553413,,pre_reversal,right,left,84.89321445801761,0.27680812508333474,0,84.27807679201942,86.08603091700934,1.8079541249899194,main,1
32,2,1,mixed01_level2_block01,26,baseline,shape_absent,,,,,baseline,face_absent,,,,,,,,blank,,,,,,,,,,,86.09145608299877,,,1.0670482521154034,,,,,,,,,,,,,,,,,86.08617779205088,87.15855112497229,1.0723733329214156,main,1
33,2,1,mixed01_level2_block01,27,baseline,shape_absent,,,,,baseline,face_absent,,,,,,,,blank,,,,,,,,,,,87.16643083305098,,,1.5493062221922251,,,,,,,,,,,,,,,,,87.15864949999377,88.71578195795882,1.5571324579650536,main,1
34,2,1,mixed01_level2_block01,28,baseline,shape_absent,,,,,baseline,face_absent,,,,,,,,blank,,,,,,,,,,,88.72502045799047,,,1.433216768501555,,,,,,,,,,,,,,,,,88.71588395803701,90.15825466695242,1.442370708915405,main,1
35,2,15,mixed02_level2_block15,1,active,face_present,face_present,fpa10.png,face,meaningful,frequent,face_absent,right,bottom,,0.24964020808693022,90.49948645802215,0.49100212508346885,90.74084770795889,standard,0.03996650688188347,std.wav,0.2804840410826728,90.53032949997578,0.24964020808693022,90.49948645802215,0.49100212508346885,90.74084770795889,0.9498362910235301,91.19968120800331,,0.9496402080869302,91.19968216703273,0.3247225473101781,1.2743627553971082,91.52436358295381,delayed,cd_delayed,1.2509726660791785,91.50081833300646,1.2509726660791785,91.50081833300646,,,post_reversal,right,,,,0,90.15836350002792,91.52436358295381,1.3660000829258934,main,2
36,2,15,mixed02_level2_block15,2,active,face_present,face_present,fpa25.png,face,meaningful,frequent,face_absent,right,bottom,,0.2420095830457285,91.858229125035,0.4916312920395285,92.10785124998074,standard,0.06873512192071152,std.wav,0.30893729196395725,91.9251570829656,0.2420095830457285,91.858229125035,0.4916312920395285,92.10785124998074,0.9421880419831723,92.55840754194651,,0.9420095830457285,92.55840870796237,0.44680428328010746,1.3888138663258358,93.00566337502096,delayed,cd_delayed,1.0068612919421867,92.62308133300394,1.0068612919421867,92.62308133300394,0.39951045892667025,,post_reversal,right,right,92.22386658296455,0.3653412499697879,1,91.5245219169883,93.00566337502096,1.4811414580326527,main,2
37,2,15,mixed02_level2_block15,3,active,face_present,face_present,fpa07.png,face,meaningful,frequent,face_absent,right,bottom,,0.24183258297853172,93.33275062497705,0.48337929195258766,93.5742971249856,standard,0.09781373020324574,std.wav,0.33818437496665865,93.42910279205535,0.24183258297853172,93.33275062497705,0.48337929195258766,93.5742971249856,0.9428141249809414,94.03373150003608,,0.9418325829785317,94.03373279201332,0.8815156479541466,1.8233482309326783,94.91525808302686,delayed,cd_delayed,0.942918041953817,94.03383612504695,0.942918041953817,94.03383612504695,0.34930262493435293,,post_reversal,right,right,93.68480229203124,0.35178283404093236,1,93.00582574994769,94.91525808302686,1.9094323330791667,main,2
38,2,15,mixed02_level2_block15,4,active,face_present,shape_present,knz_wob.png,shape,meaningful,rare,face_absent,left,bottom,,0.24172991700470448,95.2498812499689,0.4913582089357078,95.49950945796445,deviant,-0.20279097403637258,deviant.wav,0.038058375008404255,95.04621062497608,0.24172991700470448,95.2498812499689,0.4913582089357078,95.49950945796445,0.9422920419601724,95.95044287503697,,0.9417299170047044,95.9504439169541,0.45806010014011017,1.3997900171448145,96.40854779200163,delayed,cd_delayed,1.0788301249267533,96.08698150003329,1.0788301249267533,96.08698150003329,0.47135279094800353,,post_reversal,right,left,95.61592250003014,0.36574741697404534,0,94.91539808304515,96.40854779200163,1.49314970895648,main,2
39,2,15,mixed02_level2_block15,5,active,face_present,face_present,fpa29.png,face,meaningful,frequent,face_absent,right,bottom,,0.2501293750246987,96.74963191698771,0.500054708099924,96.99955704202875,standard,0.18183908759425793,std.wav,0.422407083096914,96.92190937499981,0.2501293750246987,96.74963191698771,0.500054708099924,96.99955704202875,0.9507622920209542,97.45026391698048,,0.9501293750246986,97.45026487496216,0.7816594822919185,1.7317888573166171,98.23164179199375,none,cd_none,,,,,,,post_reversal,right,left,97.18394074996468,0.4340320420451462,0,96.40874541702215,98.23164179199375,1.8228963749716058,main,2
40,2,15,mixed02_level2_block15,6,active,face_present,face_present,fpa28.png,face,meaningful,frequent,face_absent,right,bottom,,0.2422213749960065,98.56700712500606,0.4914353749481961,98.81621887499932,standard,-0.2361620765481126,std.wav,0.0041223750449717045,98.32890624995343,0.2422213749960065,98.56700712500606,0.4914353749481961,98.81621887499932,0.9429543339647353,99.26773741701618,,0.9422213749960064,99.26773845800199,0.3620807223494116,1.304302097345418,99.62915466702543,delayed,cd_delayed,1.0190486250212416,99.34383237501606,1.0190486250212416,99.34383237501606,0.48108354106079787,,post_reversal,right,right,98.86302162497304,0.29574370896443725,1,98.23183004197199,99.62915466702543,1.397324625053443,main,2
41,2,15,mixed02_level2_block15,7,active,face_present,face_present,fpa03.png,face,meaningful,frequent,face_absent,right,top,,0.24976433301344514,99.96597979194485,0.49163966602645814,100.20785516698379,standard,-0.20140301711372022,std.wav,0.03907991596497595,99.75529579201248,0.24976433301344514,99.96597979194485,0.49163966602645814,100.20785516698379,0.9507731250487268,100.6669885419542,,0.9497643330134451,100.6669900000561,0.20435044877104286,1.154114781784488,100.87094074999914,delayed,cd_delayed,1.0395578750176355,100.75577362498734,1.0395578750176355,100.75577362498734,0.4790561670670286,,post_reversal,right,right,100.27701470803004,0.3107373749371618,1,99.62932099995669,100.87094074999914,1.241619750042446,main,2
42,2,15,mixed02_level2_block15,8,active,face_present,shape_present,knz_bow.png,shape,meaningful,rare,face_absent,left,bottom,,0.24169808300212026,101.19956316705793,0.491687250090763,101.44955241703428,standard,0.11459143550900008,std.wav,0.35536570800468326,101.31323058297858,0.24169808300212026,101.19956316705793,0.491687250090763,101.44955241703428,0.9419342910405248,101.89979870803654,,0.9416980830021202,101.89979974995367,0.7166402566702714,1.6583383396723916,102.61717862496153,delayed,cd_delayed,1.341673000017181,102.29953824996483,1.341673000017181,102.29953824996483,,,post_reversal,right,,,,0,100.87109408294782,102.61717862496153,1.7460845420137048,main,2
43,2,15,mixed02_level2_block15,9,active,face_present,face_present,fpa10.png,face,meaningful,frequent,face_absent,right,bottom,,0.24968300003092736,102.95756483299192,0.49190533300861716,103.19978704198729,standard,-0.19456508582804205,std.wav,0.04614750004839152,102.75402991694864,0.24968300003092736,102.95756483299192,0.49190533300861716,103.19978704198729,0.950204125023447,103.65808508300688,,0.9496830000309273,103.6580860420363,0.2186582355192607,1.168341235550188,103.87712108297274,none,cd_none,,,,,,,post_reversal,right,right,103.26166816696059,0.3038330830167979,1,102.61733258306049,103.87712108297274,1.259788499912247,main,2
44,2,15,mixed02_level2_block15,10,active,face_present,face_present,fpa16.png,face,meaningful,frequent,face_absent,right,bottom,,0.24203425005543977,104.20825241704006,0.4916147500043735,104.4578331670491,standard,0.10565786047477765,std.wav,0.3462013329844922,104.31242033303715,0.24203425005543977,104.20825241704006,0.4916147500043735,104.4578331670491,0.9429965830640867,104.90921445796266,,0.9420342500554397,104.90921554202214,0.817019196982625,1.7590534470380648,105.72597575001419,delayed,cd_delayed,1.042989291017875,105.00920804205816,1.042989291017875,105.00920804205816,0.3998158749891445,,post_reversal,right,right,104.60967045801226,0.4011391659732908,1,103.87728799995966,105.72597575001419,1.8486877500545233,main,2
45,2,15,mixed02_level2_block15,11,active,face_present,face_present,fpa15.png,face,meaningful,frequent,face_absent,right,bottom,,0.24164566688705236,105.97493320796639,0.48318133293651044,106.21646899997722,blank,,,,,0.24164566688705236,105.97493320796639,0.48318133293651044,106.21646899997722,0.9420616249553859,106.67534862505272,,0.9416456668870523,106.67534954205621,0.837189984698752,1.7788356515858044,107.5124464170076,delayed,cd_delayed,0.9791875419905409,106.71247554197907,0.9791875419905409,106.71247554197907,0.41314495902042836,,post_reversal,right,right,106.29963100003079,0.3243969160830602,1,105.72612799995113,107.5124464170076,1.7863184170564637,main,2
46,2,15,mixed02_level2_block15,12,active,face_present,face_present,fpa30.png,face,meaningful,frequent,face_absent,right,top,,0.24191770795732737,107.84170337498654,0.491347000002861,108.09113270801026,standard,-0.07054600959226776,std.wav,0.17021266696974635,107.76999887498096,0.24191770795732737,107.84170337498654,0.491347000002861,108.09113270801026,0.9423184579936787,108.54210399999283,,0.9419177079573273,108.54210520803463,0.3325255463889648,1.2744432543462922,108.8747586250538,delayed,cd_delayed,0.9424185829702765,108.5422047500033,0.9424185829702765,108.5422047500033,0.44084516598377377,,post_reversal,right,right,108.10163275001105,0.25965570902917534,1,107.51257366698701,108.8747586250538,1.3621849580667913,main,2
47,2,15,mixed02_level2_block15,13,active,face_present,face_present,fpa15.png,face,meaningful,frequent,face_absent,right,bottom,,0.24182029196526855,109.20826950005721,0.4833622499136254,109.44981141702738,deviant,0.18090176975157352,deviant.wav,0.421766166924499,109.38821533299051,0.24182029196526855,109.20826950005721,0.4833622499136254,109.44981141702738,0.9425550419837236,109.90900354203768,,0.9418202919652685,109.90900445799343,0.5805987207969538,1.5224190127622224,110.48916541703511,none,cd_none,,,,,,,post_reversal,right,right,109.58555149997119,0.3770027080317959,1,108.87499041703995,110.48916541703511,1.6141749999951571,main,2
48,2,15,mixed02_level2_block15,14,active,face_present,face_present,fpa28.png,face,meaningful,frequent,face_absent,right,bottom,,0.2497545829974115,110.83288362505846,0.491192499990575,111.07432124996558,standard,-0.037890144811471765,std.wav,0.20277508290018886,110.78590470796917,0.2497545829974115,110.83288362505846,0.491192499990575,111.07432124996558,0.9507588749984279,111.53388700005598,,0.9497545829974114,111.53388791705947,0.8667461653580464,1.8165007483554578,112.40003516699653,delayed,cd_delayed,0.9508542919065803,111.53398308297619,0.9508542919065803,111.53398308297619,0.40673745900858194,,post_reversal,right,right,111.12751333299093,0.2943622499005869,1,110.48935754201375,112.40003516699653,1.9106776249827817,main,2
49,2,15,mixed02_level2_block15,15,active,face_present,shape_absent,nknz_wob.png,shape,ambiguous,rare,face_absent,left,bottom,,0.24946137494407594,112.74089733301662,0.4910567079205066,112.98249262501486,standard,-0.03865909198093381,std.wav,0.2018107499461621,112.69324691698421,0.24946137494407594,112.74089733301662,0.4910567079205066,112.98249262501486,0.9495511669665575,113.44098700000905,,0.9494613749440759,113.44098837499041,0.7875903925683982,1.7370517675124741,114.22941074997652,delayed,cd_delayed,1.0422676249872893,113.53370383300353,1.0422676249872893,113.53370383300353,0.4176695829955861,,post_reversal,left,left,113.11634087504353,0.37513666704762727,1,112.40019829198718,114.22941074997652,1.8292124579893425,main,2
50,2,15,mixed02_level2_block15,16,active,face_present,face_present,fpa11.png,face,meaningful,frequent,face_absent,right,top,,0.24933124997187406,114.49123408296145,0.4910114168887958,114.73291420796886,blank,,,,,0.24933124997187406,114.49123408296145,0.4910114168887958,114.73291420796886,0.949466707999818,115.19136887497734,,0.949331249971874,115.19136979198083,0.6689823419135209,1.618313591885395,115.86107620794792,delayed,cd_delayed,0.949558874941431,115.19146174995694,0.949558874941431,115.19146174995694,0.38638991699554026,,post_reversal,right,right,114.80535337503534,0.31383770797401667,1,114.22956920799334,115.86107620794792,1.6315069999545813,main,2
51,2,15,mixed02_level2_block15,17,active,face_present,face_present,fpa21.png,face,meaningful,frequent,face_absent,right,top,,0.24941924994345754,116.19923770800233,0.49136383295990527,116.44118191697635,standard,0.12761753949594223,std.wav,0.36851374991238117,116.31833220797125,0.24941924994345754,116.19923770800233,0.49136383295990527,116.44118191697635,0.9498766659526154,116.89969491702504,,0.9494192499434575,116.89969624998048,0.24368326310728172,1.1931025130507393,117.1432615830563,delayed,cd_delayed,0.9499693749239668,116.89978820795659,0.9499693749239668,116.89978820795659,0.4306247499771416,,post_reversal,right,right,116.46943262498826,0.26992537500336766,1,115.86120112496428,117.1432615830563,1.282060458092019,main,2
52,2,15,mixed02_level2_block15,18,active,face_present,face_present,fpa26.png,face,meaningful,frequent,face_absent,right,top,,0.2418647080194205,117.47475354198832,0.48306616593617946,117.71595491701737,standard,-0.09588232344009578,std.wav,0.1444779159501195,117.377366916975,0.2418647080194205,117.47475354198832,0.48306616593617946,117.71595491701737,0.9425917080370709,118.17547991697211,,0.9418647080194205,118.17548087495379,0.6751275201323989,1.6169922281518194,118.85083004203625,delayed,cd_delayed,0.9426894580246881,118.17557837499771,0.9426894580246881,118.17557837499771,0.4266965000424534,,post_reversal,right,right,117.74914754205383,0.27412824996281415,1,117.14341379201505,118.85083004203625,1.707416250021197,main,2
53,2,15,mixed02_level2_block15,19,active,face_present,face_present,fpa21.png,face,meaningful,frequent,face_absent,right,top,,0.24972862505819649,119.1911726250546,0.4916676670545712,119.43311133305542,standard,0.1759716256204516,std.wav,0.4165201249998063,119.35796387505252,0.24972862505819649,119.1911726250546,0.4916676670545712,119.43311133305542,0.9501631250604987,119.89160616695881,,0.9497286250581964,119.89160708303098,0.4017648457512152,1.3514934708094115,120.29295029200148,delayed,cd_delayed,0.9697609590366483,119.91120458301157,0.9697609590366483,119.91120458301157,0.4421046670759097,,post_reversal,right,right,119.46937245805748,0.2779276669025421,1,118.8509822919732,120.29295029200148,1.4419680000282824,main,2
54,2,15,mixed02_level2_block15,20,active,face_present,face_present,fpa04.png,face,meaningful,frequent,face_absent,right,bottom,,0.24997516709845513,120.63283575000241,0.49998754204716533,120.88284791703336,standard,-0.03683622132059339,std.wav,0.20391949999611825,120.58678020804655,0.24997516709845513,120.63283575000241,0.49998754204716533,120.88284791703336,0.950881875003688,121.33374170796014,,0.9499751670984551,121.33374258305412,0.4097321575901014,1.3597073246885565,121.74303837504704,delayed,cd_delayed,0.9509717090986669,121.3338322499767,0.9509717090986669,121.3338322499767,0.4739454590016976,,post_reversal,right,right,120.86017104203347,0.22705108299851418,1,120.2931047079619,121.74303837504704,1.4499336670851335,main,2
55,2,15,mixed02_level2_block15,21,active,face_present,face_present,fpa13.png,face,meaningful,frequent,face_absent,right,bottom,,0.24967199994716793,122.10756345803384,0.491273041930981,122.34916441701353,standard,-0.09327312098199994,std.wav,0.1475255839759484,122.00541737501044,0.24967199994716793,122.10756345803384,0.491273041930981,122.34916441701353,0.950580958975479,122.80847216700204,,0.9496719999471679,122.80847349995747,0.8112892448818592,1.760961244829027,123.61904558294918,delayed,cd_delayed,0.9506741669028997,122.80856616701931,0.9506741669028997,122.80856616701931,0.5286380829056725,,post_reversal,right,right,122.28019658301491,0.17236408405005932,1,121.74317816703115,123.61904558294918,1.8758674159180373,main,2
56,2,15,mixed02_level2_block15,22,active,face_present,shape_absent,nknz_bow.png,shape,ambiguous,rare,face_absent,left,bottom,,0.2497342498973012,123.98287258297205,0.4997204999672249,124.23285916703753,deviant,0.03254511632526669,deviant.wav,0.2731861249776557,124.0063249169616,0.2497342498973012,123.98287258297205,0.4997204999672249,124.23285916703753,0.9504119579214603,124.68354966701008,,0.9497342498973012,124.68355070799589,0.7579350786082615,1.7076693285055626,125.44146395800635,delayed,cd_delayed,0.9505083329277113,124.6836469169939,0.9505083329277113,124.6836469169939,0.49078716698568314,,post_reversal,left,right,124.19315391697455,0.20998691604472697,0,123.61920966696925,125.44146395800635,1.8222542910370976,main,2
57,2,15,mixed02_level2_block15,23,active,face_present,face_present,fpa22.png,face,meaningful,frequent,face_absent,right,top,,0.24941012496128678,125.79922008304857,0.49117908300831914,126.04098929197062,standard,0.12135183743711725,std.wav,0.3617485420545563,125.91155862505548,0.24941012496128678,125.79922008304857,0.49117908300831914,126.04098929197062,0.9496838749619201,126.49949349998496,,0.9494101249612867,126.49949454201851,0.6003449993536698,1.5497551243149565,127.10032574995421,none,cd_none,,,,,,,post_reversal,right,right,126.1431885829661,0.34369654208421707,1,125.44160083297174,127.10032574995421,1.6587249169824645,main,2
58,2,15,mixed02_level2_block15,24,active,face_present,shape_present,knz_wob.png,shape,meaningful,rare,face_absent,left,top,,0.24997908296063542,127.45787425001618,0.491922999965027,127.69981812499464,standard,-0.10641052060770934,std.wav,0.13445737503934652,127.3423528750427,0.24997908296063542,127.45787425001618,0.491922999965027,127.69981812499464,0.950302500044927,128.15819691703655,,0.9499790829606354,128.1581983329961,0.4862781328674151,1.4362572158280504,128.64489754196256,none,cd_none,,,,,,,post_reversal,right,right,127.65204133302905,0.19388562510721385,1,127.10048854199704,128.64489754196256,1.5444089999655262,main,2
59,2,15,mixed02_level2_block15,25,active,face_present,face_present,fpa24.png,face,meaningful,frequent,face_absent,right,top,,0.24954666593112051,129.00784958305303,0.4914608330000192,129.24976304196753,standard,0.06216477922437241,std.wav,0.3026816659839824,129.0609838749515,0.24954666593112051,129.00784958305303,0.4914608330000192,129.24976304196753,0.9504370409995317,129.70873874996323,,0.9495466659311205,129.70873979199678,0.8743809839343251,1.8239276498654455,130.58296029199846,delayed,cd_delayed,1.053008749964647,129.81131141702645,1.053008749964647,129.81131141702645,0.4131279590073973,,post_reversal,right,left,129.3984582920093,0.3903341250261292,0,128.64505587494932,130.58296029199846,1.9379044170491397,main,2
60,2,15,mixed02_level2_block15,26,baseline,face_present,,,,,baseline,face_absent,,,,,,,,blank,,,,,,,,,,,130.5914853749564,,,1.1166347680405986,,,,,,,,,,,,,,,,,130.58312033303082,131.7081659999676,1.125045666936785,main,2
61,2,15,mixed02_level2_block15,27,baseline,face_present,,,,,baseline,face_absent,,,,,,,,blank,,,,,,,,,,,131.71587683295365,,,1.1399170597040766,,,,,,,,,,,,,,,,,131.7082784170052,132.85582483303733,1.147546416032128,main,2
62,2,15,mixed02_level2_block15,28,baseline,face_present,,,,,baseline,face_absent,,,,,,,,blank,,,,,,,,,,,132.8580071249744,,,1.2585160586393964,,,,,,,,,,,,,,,,,132.8559161250014,134.11653233296238,1.260616207960993,main,2
63,2,6,mixed03_level2_block06,1,active,face_present,face_present,fpa02.png,face,meaningful,frequent,shape_absent,right,bottom,,0.24966087494976819,149.91200195800047,0.4996045419247821,150.16194558294956,deviant,0.2326164664971963,deviant.wav,0.47348399995826185,150.1358244169969,0.24966087494976819,149.91200195800047,0.4996045419247821,150.16194558294956,0.9497084169415757,150.6120483749546,,0.9496608749497681,150.6120492919581,0.578531166971435,1.5281920419212032,151.19093958300073,delayed,cd_delayed,0.9981293749297038,150.66047008300666,0.9981293749297038,150.66047008300666,0.44132858293596655,,pre_reversal,left,right,150.21940720803104,0.30713991704396904,0,149.54861249995884,151.19093958300073,1.6423270830418915,main,3
64,2,6,mixed03_level2_block06,2,active,face_present,face_present,fpa07.png,face,meaningful,frequent,shape_absent,right,top,,0.24997174995951355,151.55367475003004,0.4916168329073116,151.7953189170221,standard,-0.04310153437988759,std.wav,0.1977188749006018,151.5014210420195,0.24997174995951355,151.55367475003004,0.4916168329073116,151.7953189170221,0.950197457917966,152.25389891699888,,0.9499717499595135,152.25389987498056,0.8298379187986935,1.779809668758207,153.08391333301552,delayed,cd_delayed,0.9502900829538703,152.25399220804684,0.9502900829538703,152.25399220804684,0.42720050003845245,,pre_reversal,left,right,151.82706608297303,0.2731178329559043,0,151.19110012496822,153.08391333301552,1.8928132080473006,main,3
65,2,6,mixed03_level2_block06,3,active,face_present,face_present,fpa22.png,face,meaningful,frequent,shape_absent,right,top,,0.2497410000069067,153.44529904203955,0.49142645800020546,153.68698404205497,standard,0.11852378084900017,std.wav,0.35899954196065664,153.55455716699362,0.2497410000069067,153.44529904203955,0.49142645800020546,153.68698404205497,0.9501468749949709,154.14570387499407,,0.9497410000069066,154.14570483297575,0.33870745153921705,1.2884484515461236,154.48443587496877,none,cd_none,,,,,,,pre_reversal,left,right,153.74045312497765,0.29488891700748354,0,153.08406958298292,154.48443587496877,1.400366291985847,main,3
66,2,6,mixed03_level2_block06,4,active,face_present,face_absent,faa15.png,face,ambiguous,rare,shape_absent,left,bottom,,0.24203454097732902,154.8373849169584,0.4834787909639999,155.07882879197132,standard,0.11568147401114537,std.wav,0.3565312079153955,154.95188125001732,0.24203454097732902,154.8373849169584,0.4834787909639999,155.07882879197132,0.9421234159963205,155.5374728749739,,0.942034540977329,155.53747400001157,0.6788723575185185,1.6209068984958475,156.21690416696947,delayed,cd_delayed,1.141800457960926,155.73715066700242,1.141800457960926,155.73715066700242,0.4310788329457864,,pre_reversal,right,right,155.30634979205206,0.46868708403781056,1,154.48461337503977,156.21690416696947,1.7322907919296995,main,3
67,2,6,mixed03_level2_block06,5,active,face_present,face_present,fpa22.png,face,meaningful,frequent,shape_absent,right,top,,0.24906558403745294,156.5783470829483,0.4909372919937596,156.82021875004284,standard,0.0787381207977435,std.wav,0.31905450008343905,156.64833641704172,0.24906558403745294,156.5783470829483,0.4909372919937596,156.82021875004284,0.9498944170773029,157.27917554194573,,0.9490655840374529,157.2791764580179,0.727682543705227,1.67674812774268,158.0064586669905,delayed,cd_delayed,1.0983047090703622,157.42758645804133,1.0983047090703622,157.42758645804133,0.4234712499892339,,pre_reversal,left,right,157.0043937920127,0.4257678750436753,0,156.21707412495743,158.0064586669905,1.7893845420330763,main,3
68,2,6,mixed03_level2_block06,6,active,face_present,face_absent,faa01.png,face,ambiguous,rare,shape_absent,left,bottom,,0.24916141701396555,158.37002854200546,0.49144454195629805,158.6123116669478,standard,0.11845215959326355,std.wav,0.3590987919596955,158.47996562498156,0.24916141701396555,158.37002854200546,0.49144454195629805,158.6123116669478,0.9499223749153316,159.0707889170153,,0.9491614170139655,159.07079000002705,0.645347226943202,1.5945086439571674,159.71623379201628,delayed,cd_delayed,1.2821060839341953,159.40297320799436,1.2821060839341953,159.40297320799436,,,pre_reversal,right,,,,0,158.00665583298542,159.71623379201628,1.7095779590308666,main,3
69,2,6,mixed03_level2_block06,7,active,face_present,face_present,fpa27.png,face,meaningful,frequent,shape_absent,right,bottom,,0.2497671659803018,160.07868912501726,0.49972929095383734,160.32865029200912,standard,-0.23406115343677947,std.wav,0.006199833005666733,159.8351210419787,0.2497671659803018,160.07868912501726,0.49972929095383734,160.32865029200912,0.9505166249582544,160.7794366669841,,0.9497671659803018,160.77943766699173,0.27798069910345846,1.22774786508376,161.05686945805792,delayed,cd_delayed,1.1652185409329832,160.9941393750487,1.1652185409329832,160.9941393750487,0.4522012498928234,,pre_reversal,left,right,160.54222020797897,0.46325012505985796,0,159.71639679197688,161.05686945805792,1.340472666081041,main,3
70,2,6,mixed03_level2_block06,8,active,face_present,face_present,fpa04.png,face,meaningful,frequent,shape_absent,right,bottom,,0.24161791696678847,161.3033073330298,0.48329604195896536,161.54498558305204,blank,,,,,0.24161791696678847,161.3033073330298,0.48329604195896536,161.54498558305204,0.9421137080062181,162.00380258297082,,0.9416179169667884,162.00380362500437,0.8331353573585965,1.7747532743253849,162.83705850003753,delayed,cd_delayed,1.1187011249130592,162.18039087497164,1.1187011249130592,162.18039087497164,0.4154807919403538,,pre_reversal,left,right,161.76519049995113,0.4616024160059169,0,161.05701900005806,162.83705850003753,1.7800394999794662,main,3
71,2,6,mixed03_level2_block06,9,active,face_present,face_present,fpa01.png,face,meaningful,frequent,shape_absent,right,bottom,,0.24966533400584012,163.19525800005067,0.4912194589851424,163.43681158300024,standard,0.07808049468963374,std.wav,0.3185660419985652,163.26415808300953,0.24966533400584012,163.19525800005067,0.4912194589851424,163.43681158300024,0.9502048339927569,163.8957965830341,,0.9496653340058401,163.89579774998128,0.3598724777092198,1.3095378117150598,164.25519133300986,delayed,cd_delayed,1.0878460420062765,164.03343833296094,1.0878460420062765,164.03343833296094,0.4835011250106618,,pre_reversal,left,right,163.5502112080576,0.35467958298977464,0,162.83718499995302,164.25519133300986,1.4180063330568373,main,3
72,2,6,mixed03_level2_block06,10,active,face_present,shape_present,knz_bow.png,shape,meaningful,rare,shape_absent,left,top,,0.24245983397122473,164.6041850419715,0.48396191699430346,164.845686958055,standard,0.005385295847478766,std.wav,0.2457695419434458,164.60749520803802,0.24245983397122473,164.6041850419715,0.48396191699430346,164.845686958055,0.942971083917655,165.30469554197043,,0.9424598339712247,165.304696416948,0.8385810160071163,1.781040849978341,166.14306379202753,delayed,cd_delayed,1.3318187919212505,165.69354395801201,1.3318187919212505,165.69354395801201,0.48068970791064203,,pre_reversal,left,right,165.21314250002615,0.6086692500393838,0,164.255348125007,166.14306379202753,1.8877156670205295,main,3
73,2,6,mixed03_level2_block06,11,active,face_present,face_present,fpa22.png,face,meaningful,frequent,shape_absent,right,top,,0.2499777500052005,166.50363583303988,0.49142487498465925,166.7450831249589,standard,-0.05222259713697627,std.wav,0.18814149999525398,166.44179987499956,0.2499777500052005,166.50363583303988,0.49142487498465925,166.7450831249589,0.9500526660121977,167.20371037500445,,0.9499777500052005,167.203711417038,0.5822737865197971,1.5322515365249976,167.78691370796878,delayed,cd_delayed,0.9511787079973146,167.20483737497125,0.9511787079973146,167.20483737497125,0.4188948750961572,,pre_reversal,left,right,166.78623516694643,0.28230608289595693,0,166.14323916705325,167.78691370796878,1.6436745409155264,main,3
74,2,6,mixed03_level2_block06,12,active,face_present,face_present,fpa18.png,face,meaningful,frequent,shape_absent,right,top,,0.24942304089199752,168.1450117919594,0.4910574579844251,168.38664599996991,deviant,-0.07736837083815618,deviant.wav,0.1629728329135105,168.05856141704135,0.24942304089199752,168.1450117919594,0.4910574579844251,168.38664599996991,0.9501656249631196,168.8457536669448,,0.9494230408919975,168.84575474995654,0.578887695997417,1.5283107368894144,169.42424687498715,delayed,cd_delayed,0.9502652909141034,168.84585433301982,0.9502652909141034,168.84585433301982,0.37601591600105166,,pre_reversal,left,right,168.47008291701786,0.3248263340210542,0,167.7870646249503,169.42424687498715,1.637182250036858,main,3
75,2,6,mixed03_level2_block06,13,active,face_present,face_absent,faa24.png,face,ambiguous,rare,shape_absent,left,bottom,,0.24967870896216482,169.78695874998812,0.49145241698715836,170.0287319580093,standard,0.10699084414225946,std.wav,0.34723729197867215,169.88451704196632,0.24967870896216482,169.78695874998812,0.49145241698715836,170.0287319580093,0.950031541986391,170.48731045797467,,0.9496787089621648,170.4873114579823,0.8753434113279561,1.825022120290121,171.36260883300565,delayed,cd_delayed,1.0677826669998467,170.60506333305966,1.0677826669998467,170.60506333305966,0.3931363329757005,,pre_reversal,right,left,170.21223687496968,0.4249676250619814,0,169.42445083300117,171.36260883300565,1.9381580000044778,main,3
76,2,6,mixed03_level2_block06,14,active,face_present,face_present,fpa06.png,face,meaningful,frequent,shape_absent,right,bottom,,0.24185837502591312,171.72086187498644,0.4913417500210926,171.9703454580158,standard,0.15977118171450921,std.wav,0.3998888749629259,171.87889229203574,0.24185837502591312,171.72086187498644,0.4913417500210926,171.9703454580158,0.9424137499881908,172.42141662503127,,0.9418583750259131,172.42141758301295,0.5400247582819249,1.481883133307838,172.9612424999941,none,cd_none,,,,,,,pre_reversal,left,right,172.07413204200566,0.3529816250083968,0,171.36275537498295,172.9612424999941,1.598487125011161,main,3
77,2,6,mixed03_level2_block06,15,active,face_present,face_present,fpa28.png,face,meaningful,frequent,shape_absent,right,bottom,,0.250003750086762,173.32029425003566,0.49139712506439537,173.56168733304366,standard,0.08999359840252469,std.wav,0.3308387080905959,173.4011287499452,0.250003750086762,173.32029425003566,0.49139712506439537,173.56168733304366,0.9509259160840884,174.02121549996082,,0.950003750086762,174.02121645805892,0.22675129973808872,1.1767550498248507,174.2470620420063,delayed,cd_delayed,0.9510317080421373,174.02132225001696,0.9510317080421373,174.02132225001696,0.3866541249444708,,pre_reversal,left,right,173.63492804195266,0.3143738330109045,0,172.96141300001182,174.2470620420063,1.2856490419944748,main,3
78,2,6,mixed03_level2_block06,16,active,face_present,face_present,fpa12.png,face,meaningful,frequent,shape_absent,right,bottom,,0.242116832989268,174.60413712495938,0.48359941702801734,174.84561950003263,standard,0.13682107938863158,std.wav,0.3775885420618579,174.73960854194593,0.242116832989268,174.60413712495938,0.48359941702801734,174.84561950003263,0.9429852080065757,175.30500470800325,,0.942116832989268,175.30500566703267,0.8635150810807426,1.8056319140700106,176.16771654202603,delayed,cd_delayed,1.049596333061345,175.41161683294922,1.049596333061345,175.41161683294922,0.45406400004867464,,pre_reversal,left,right,174.95781991700642,0.3534155000234023,0,174.24720512505155,176.16771654202603,1.9205114169744775,main,3
79,2,6,mixed03_level2_block06,17,active,face_present,face_present,fpa25.png,face,meaningful,frequent,shape_absent,right,bottom,,0.24195766693446785,176.52090233296622,0.491316125029698,176.7702604579972,standard,-0.013346658753275537,std.wav,0.2268016249872744,176.5057464579586,0.24195766693446785,176.52090233296622,0.491316125029698,176.7702604579972,0.9428081249352545,177.2217525000451,,0.9419576669344678,177.2217539580306,0.6843303669282725,1.6262880338627403,177.90575754200108,delayed,cd_delayed,0.9429303340148181,177.2218747920124,0.9429303340148181,177.2218747920124,0.4750170420156792,,pre_reversal,left,right,176.74712679197546,0.22595562506467104,0,176.16786799998954,177.90575754200108,1.737889542011544,main,3
80,2,6,mixed03_level2_block06,18,active,face_present,face_present,fpa07.png,face,meaningful,frequent,shape_absent,right,bottom,,0.24917187506798655,178.27002833294682,0.49116533307824284,178.51202179200482,standard,-0.2240216969876839,std.wav,0.01651087508071214,178.03736779198516,0.24917187506798655,178.27002833294682,0.49116533307824284,178.51202179200482,0.9493057500803843,178.9701616249513,,0.9491718750679865,178.97016254195478,0.4431956442520457,1.3923675193200322,179.41394162504002,none,cd_none,,,,,,,pre_reversal,left,right,178.5167019580258,0.24639179091900587,0,177.90595749998465,179.41394162504002,1.5079841250553727,main,3
81,2,6,mixed03_level2_block06,19,active,face_present,shape_present,knz_bow.png,shape,meaningful,rare,shape_absent,left,top,,0.2417247499106452,179.6619202500442,0.48368458391632885,179.9038799169939,blank,,,,,0.2417247499106452,179.6619202500442,0.48368458391632885,179.9038799169939,0.941972458967939,180.36216716701165,,0.9417247499106451,180.3621680829674,0.8362512624218097,1.7779760123324548,181.19905341695994,delayed,cd_delayed,1.1206657500006258,180.54086162499152,1.1206657500006258,180.54086162499152,0.4633097500773147,,pre_reversal,left,left,180.07783295796253,0.415631250012666,1,179.41410858300515,181.19905341695994,1.7849448339547962,main,3
82,2,6,mixed03_level2_block06,20,active,face_present,face_present,fpa13.png,face,meaningful,frequent,shape_absent,right,top,,0.24935466703027487,181.56169216695707,0.4910248749656603,181.803362458013,deviant,-0.1337856926322572,deviant.wav,0.10713754198513925,181.41947529197205,0.24935466703027487,181.56169216695707,0.4910248749656603,181.803362458013,0.9499370419653133,182.2622739999788,,0.9493546670302748,182.26227491698228,0.46412026277753426,1.413474929807809,182.72590262501035,none,cd_none,,,,,,,pre_reversal,left,right,181.83583791705314,0.2738487080205232,0,181.1991866249591,182.72590262501035,1.5267160000512376,main,3
83,2,6,mixed03_level2_block06,21,active,face_present,face_present,fpa21.png,face,meaningful,frequent,shape_absent,right,top,,0.24999641603790224,183.08699258300476,0.49991604103706777,183.33691229205579,standard,-0.09756855524365143,std.wav,0.14272662508301437,182.97972316702362,0.24999641603790224,183.08699258300476,0.49991604103706777,183.33691229205579,0.9506917910184711,183.78768750000745,,0.9499964160379022,183.78768850001507,0.5271164248902546,1.4771128409281569,184.3149747500429,none,cd_none,,,,,,,pre_reversal,left,right,183.35982612497173,0.2725738340523094,0,182.7260560829891,184.3149747500429,1.5889186670538038,main,3
84,2,6,mixed03_level2_block06,22,active,face_present,face_present,fpa16.png,face,meaningful,frequent,shape_absent,right,top,,0.24214591702912003,184.6708507919684,0.4915701251011342,184.92027354205493,standard,-0.05398437796250585,std.wav,0.18671637505758554,184.61542033299338,0.24214591702912003,184.6708507919684,0.4915701251011342,184.92027354205493,0.9425250421045348,185.3712284580106,,0.94214591702912,185.37122979201376,0.4238703282703659,1.366016245299486,185.79566566704307,delayed,cd_delayed,0.942621250054799,185.3713249999564,0.942621250054799,185.3713249999564,0.48694529198110104,,pre_reversal,left,right,184.88467429205775,0.21353004104457796,0,184.31514320801944,185.79566566704307,1.480522459023632,main,3
85,2,6,mixed03_level2_block06,23,active,face_present,face_present,fpa06.png,face,meaningful,frequent,shape_absent,right,top,,0.24219491600524634,186.14557783305645,0.49189591594040394,186.3952792499913,standard,-0.2090502718634713,std.wav,0.031794458045624197,185.93517750001047,0.24219491600524634,186.14557783305645,0.49189591594040394,186.3952792499913,0.9422149580204859,186.84559729194734,,0.9421949160052463,186.8455982080195,0.8607708662388325,1.8029657822440788,187.70636512502097,delayed,cd_delayed,0.9423018749803305,186.84568483300973,0.9423018749803305,186.84568483300973,0.5833699590293691,,pre_reversal,left,right,186.2625814169878,0.11673699994571507,0,185.7958166670287,187.70636512502097,1.9105484579922631,main,3
86,2,6,mixed03_level2_block06,24,active,face_present,face_present,fpa20.png,face,meaningful,frequent,shape_absent,right,bottom,,0.24939754197839648,188.07031295797788,0.49072716699447483,188.31164233305026,standard,0.13266180715417797,std.wav,0.37337212497368455,188.1942877919646,0.24939754197839648,188.07031295797788,0.49072716699447483,188.31164233305026,0.9495335420360789,188.7704483330017,,0.9493975419783964,188.77044925000519,0.7212573190561675,1.670654861034564,189.4916573750088,delayed,cd_delayed,1.0727313340175897,188.89364691695664,1.0727313340175897,188.89364691695664,0.47930258396081626,,pre_reversal,left,right,188.41461095795967,0.34403120807837695,0,187.7065182919614,189.4916573750088,1.7851390830473974,main,3
87,2,6,mixed03_level2_block06,25,active,face_present,face_present,fpa08.png,face,meaningful,frequent,shape_absent,right,top,,0.24970145802944899,189.8536259579705,0.49144720809999853,190.09537095797714,standard,0.22528452910092656,std.wav,0.465720875072293,190.06964533298742,0.24970145802944899,189.8536259579705,0.49144720809999853,190.09537095797714,0.9500561250606552,190.5539793750504,,0.9497014580294489,190.55398041696753,0.5770849256827583,1.5267863837122073,191.13141187501606,delayed,cd_delayed,0.9532396250870079,190.55716370802838,0.9532396250870079,190.55716370802838,0.45541462500113994,,pre_reversal,left,right,190.10201391705777,0.24812354205641896,0,189.4918039169861,191.13141187501606,1.6396079580299556,main,3
88,2,6,mixed03_level2_block06,26,baseline,face_present,,,,,baseline,shape_absent,,,,,,,,blank,,,,,,,,,,,191.13689887500368,,,1.4253696794302464,,,,,,,,,,,,,,,,,191.1315679999534,192.56229795794934,1.4307299579959363,main,3
89,2,6,mixed03_level2_block06,27,baseline,face_present,,,,,baseline,shape_absent,,,,,,,,blank,,,,,,,,,,,192.57065691705793,,,1.096926222179326,,,,,,,,,,,,,,,,,192.56239562504925,193.6676086250227,1.1052129999734461,main,3
90,2,6,mixed03_level2_block06,28,baseline,face_present,,,,,baseline,shape_absent,,,,,,,,blank,,,,,,,,,,,193.66995370795485,,,1.3097857545396816,,,,,,,,,,,,,,,,,193.66771099995822,194.9797876670491,1.312076667090878,main,3
91,2,9,mixed04_level2_block09,1,active,shape_present,shape_present,knz_wob.png,shape,meaningful,frequent,shape_absent,right,bottom,,0.249760500038974,195.33697941701394,0.49111337505746633,195.57833212497644,standard,0.23073488568443923,std.wav,0.4716795419808477,195.55889816698618,0.249760500038974,195.33697941701394,0.49111337505746633,195.57833212497644,0.9503582919714972,196.03757654200308,,0.9497605000389739,196.0375775829889,0.25510050590406697,1.3136590575120273,196.40116679202765,delayed,cd_delayed,1.3097459169803187,196.39696558297146,1.3097459169803187,196.39696558297146,,,post_reversal,right,,,,0,194.979869666975,196.40116679202765,1.4212971250526607,main,4
92,2,9,mixed04_level2_block09,2,active,shape_present,shape_present,knz_wob.png,shape,meaningful,frequent,shape_absent,right,bottom,,0.24212483293376863,196.75408066704404,0.4916100410046056,197.00356562505476,standard,0.21644073169907418,std.wav,0.45732033299282193,196.96927558304742,0.24212483293376863,196.75408066704404,0.4916100410046056,197.00356562505476,0.9430896249832585,197.45504433300812,,0.9421248329337686,197.45504529203754,0.3900439593061587,1.3321687922399272,197.84429566701874,none,cd_none,,,,,,,post_reversal,right,left,197.15975700004492,0.405408582999371,0,196.4013159580063,197.84429566701874,1.4429797090124339,main,4
93,2,9,mixed04_level2_block09,3,active,shape_present,shape_present,knz_wob.png,shape,meaningful,frequent,shape_absent,right,top,,0.24177962506655604,198.19569591700565,0.4832635000348091,198.43718000000808,deviant,-0.045964684009247414,deviant.wav,0.19484537502285093,198.14876220806036,0.24177962506655604,198.19569591700565,0.4832635000348091,198.43718000000808,0.9418666670098901,198.89578308304772,,0.941779625066556,198.89578450005502,0.4691744614825762,1.4109540865491321,199.36509883299004,delayed,cd_delayed,1.0755751250544563,199.0294917500578,1.0755751250544563,199.0294917500578,0.4761037080315873,,post_reversal,right,left,198.55366337497253,0.35769179195631295,0,197.84445008297917,199.36509883299004,1.5206487500108778,main,4
94,2,9,mixed04_level2_block09,4,active,shape_present,face_absent,faa10.png,face,ambiguous,rare,shape_absent,left,top,,0.24966683296952397,199.7283448750386,0.4914013330126181,199.97007899999153,standard,0.1325015032608497,std.wav,0.37271191691979766,199.85138970799744,0.24966683296952397,199.7283448750386,0.4914013330126181,199.97007899999153,0.9497087079798803,200.42838579195086,,0.9496668329695239,200.42838683305308,0.27317775729716415,1.3157197582800553,200.79524612496607,delayed,cd_delayed,1.3114081249805167,200.79008570802398,1.3114081249805167,200.79008570802398,,,post_reversal,left,,,,0,199.36535874998663,200.79524612496607,1.4298873749794438,main,4
95,2,9,mixed04_level2_block09,5,active,shape_present,shape_present,knz_bow.png,shape,meaningful,frequent,shape_absent,right,top,,0.24186333396937698,201.14523749996442,0.4918347089551389,201.39520899998024,standard,-0.009184871122709215,std.wav,0.2317860840121284,201.13516095804516,0.24186333396937698,201.14523749996442,0.4918347089551389,201.39520899998024,0.9419429589761421,201.84531674999744,,0.9418633339693769,201.84531770797912,0.37496548085198683,1.3168288148213638,202.22084199998062,delayed,cd_delayed,0.942038125009276,201.84541279205587,0.942038125009276,201.84541279205587,0.9506939160637558,,post_reversal,right,left,201.14529866701923,-0.25051912502385676,0,200.79541291703936,202.22084199998062,1.425429082941264,main,4
96,2,9,mixed04_level2_block09,6,active,shape_present,shape_present,knz_bow.png,shape,meaningful,frequent,shape_absent,right,bottom,,0.2418247499736026,202.47027104196604,0.4833022919483483,202.71174891700502,blank,,,,,0.2418247499736026,202.47027104196604,0.4833022919483483,202.71174891700502,0.9419124589767307,203.17035816702992,,0.9418247499736025,203.17035908298567,0.3486697143946483,1.2904944643682508,203.51920004200656,delayed,cd_delayed,1.0948736669961363,203.3233207500307,1.0948736669961363,203.3233207500307,0.4241066250251606,,post_reversal,right,left,202.8994815000333,0.4289422919973731,0,202.2209921249887,203.51920004200656,1.2982079170178622,main,4
97,2,9,mixed04_level2_block09,7,active,shape_present,shape_present,knz_bow.png,shape,meaningful,frequent,shape_absent,right,top,,0.2419569999910891,203.8705839170143,0.49178979196585715,204.12041716696694,standard,-0.025575487823584903,std.wav,0.21539374999701977,203.8440212920541,0.2419569999910891,203.8705839170143,0.49178979196585715,204.12041716696694,0.9422807090450078,204.57091041700915,,0.9419569999910891,204.57091154204682,0.8745295732418548,1.8164865732329438,205.44560662505683,delayed,cd_delayed,0.9424069999950007,204.57103424996603,0.9424069999950007,204.57103424996603,0.416928332997486,,post_reversal,right,left,204.15443850005977,0.28352166700642556,0,203.5193337079836,205.44560662505683,1.92627291707322,main,4
98,2,9,mixed04_level2_block09,8,active,shape_present,shape_present,knz_wob.png,shape,meaningful,frequent,shape_absent,right,top,,0.242204042035155,205.7958885000553,0.48350062500685453,206.03718512505293,standard,-0.00041695307516428914,std.wav,0.24025691696442664,205.7939422080526,0.242204042035155,205.7958885000553,0.48350062500685453,206.03718512505293,0.942570082959719,206.49625412502792,,0.942204042035155,206.49625512503553,0.45169026296542925,1.3938943050005843,206.94825300003868,delayed,cd_delayed,0.9426704170182347,206.496355167008,0.9426704170182347,206.496355167008,0.4320189170539379,,post_reversal,right,left,206.06460829195566,0.2684474579291418,0,205.44575850002002,206.94825300003868,1.5024945000186563,main,4
99,2,9,mixed04_level2_block09,9,active,shape_present,shape_present,knz_wob.png,shape,meaningful,frequent,shape_absent,right,bottom,,0.24968420795630664,207.3116646669805,0.4917477919952944,207.55372991703916,standard,0.18365745825798707,std.wav,0.4246731670573354,207.48665366705973,0.24968420795630664,207.3116646669805,0.4917477919952944,207.55372991703916,0.9502657500561327,208.0122457080288,,0.9496842079563066,208.0122467080364,0.44863268370741294,1.3983168916637196,208.46054833300877,delayed,cd_delayed,1.0107891670195386,208.07276999996975,1.0107891670195386,208.07276999996975,0.4155342089943588,,post_reversal,right,left,207.65753345796838,0.34557075006887317,0,206.94842208304908,208.46054833300877,1.5121262499596924,main,4
100,2,9,mixed04_level2_block09,10,active,shape_present,face_present,fpa11.png,face,meaningful,rare,shape_absent,left,top,,0.24232179101090878,208.81235191703308,0.4837050409987569,209.05373508296907,standard,0.0198878411249227,std.wav,0.2605175409698859,208.83054762496613,0.24232179101090878,208.81235191703308,0.4837050409987569,209.05373508296907,0.9429269579704851,209.51295641704928,,0.9423217910109087,209.5129574580351,0.38242693495816116,1.3247487259690698,209.8952004170278,none,cd_none,,,,,,,post_reversal,right,left,209.06310374999885,0.25047958397772163,0,208.4607179169543,209.8952004170278,1.4344825000735,main,4
101,2,9,mixed04_level2_block09,11,active,shape_present,shape_present,knz_wob.png,shape,meaningful,frequent,shape_absent,right,bottom,,0.2501997919753194,210.25367720797658,0.4919424169929698,210.49542012496386,standard,-0.22407520850667345,std.wav,0.016473582945764065,210.01995166705456,0.2501997919753194,210.25367720797658,0.4919424169929698,210.49542012496386,0.9509384169941768,210.95441583299544,,0.9501997919753193,210.95441712497268,0.6371208590594384,1.5873206510347577,211.59098854195327,delayed,cd_delayed,1.3834612079663202,211.38693937496282,1.3834612079663202,211.38693937496282,0.4497635409934446,,post_reversal,right,left,210.93746291694697,0.6834978749975562,0,209.89536141697317,211.59098854195327,1.695627124980092,main,4
102,2,9,mixed04_level2_block09,12,active,shape_present,face_present,fpa22.png,face,meaningful,rare,shape_absent,left,bottom,,0.242271333001554,211.94593024998903,0.4913210410159081,212.19497954205144,deviant,-0.0227099914087511,deviant.wav,0.21763700002338737,211.92129704204854,0.242271333001554,211.94593024998903,0.4913210410159081,212.19497954205144,0.9427348329918459,212.64639308303595,,0.942271333001554,212.64639408304356,0.8307813664150083,1.7730526994165623,213.47742154204752,delayed,cd_delayed,1.3539856659481302,213.05764445802197,1.3539856659481302,213.05764445802197,0.4136160409543663,,post_reversal,right,left,212.6442990419455,0.6980982919922099,0,211.5911543329712,213.47742154204752,1.8862672090763226,main,4
103,2,9,mixed04_level2_block09,13,active,shape_present,shape_present,knz_bow.png,shape,meaningful,frequent,shape_absent,right,bottom,,0.2490424590650946,213.83674412500113,0.4907279589679092,214.07842983305454,standard,0.20624549957811356,std.wav,0.4470934170531109,214.03479575004894,0.2490424590650946,213.83674412500113,0.4907279589679092,214.07842983305454,0.9491522500757128,214.53685383300763,,0.9490424590650945,214.53685504198074,0.5939299506729767,1.5429724097380713,215.1310994999949,delayed,cd_delayed,1.1606584170367569,214.74836049997248,1.1606584170367569,214.74836049997248,0.5005895000649616,,post_reversal,right,left,214.24804920796305,0.41102645790670067,0,213.47793345805258,215.1310994999949,1.6531660419423133,main,4
104,2,9,mixed04_level2_block09,14,active,shape_present,shape_present,knz_wob.png,shape,meaningful,frequent,shape_absent,right,top,,0.2500795000232756,215.48700587498024,0.49183604097925127,215.72876249998808,standard,-0.1301512813013584,std.wav,0.110164082958363,215.3470907920273,0.2500795000232756,215.48700587498024,0.49183604097925127,215.72876249998808,0.9509789579315111,216.18790525000077,,0.9500795000232756,216.1879063330125,0.22517455231246733,1.1752540523357429,216.4124665419804,delayed,cd_delayed,0.9510897910222411,216.188016125001,0.9510897910222411,216.188016125001,0.4705234160646796,,post_reversal,right,left,215.71778612502385,0.23048687493428588,0,215.1312582079554,216.4124665419804,1.2812083340249956,main,4
105,2,9,mixed04_level2_block09,15,active,shape_present,shape_present,knz_wob.png,shape,meaningful,frequent,shape_absent,right,bottom,,0.2419995419913903,216.762339042034,0.4913102500140667,217.0116495830007,standard,-0.16008869206171888,std.wav,0.08095783297903836,216.60129737504758,0.2419995419913903,216.762339042034,0.4913102500140667,217.0116495830007,0.9421262079849839,217.4624649999896,,0.9419995419913902,217.4624659169931,0.5507727464885566,1.4927722884799468,218.01346208294854,delayed,cd_delayed,0.9422217500396073,217.46256108302623,0.9422217500396073,217.46256108302623,0.4174184170551598,,post_reversal,right,left,217.04544820799492,0.2828037909930572,0,216.4126477499958,218.01346208294854,1.600814332952723,main,4
106,2,9,mixed04_level2_block09,16,active,shape_present,shape_present,knz_wob.png,shape,meaningful,frequent,shape_absent,right,top,,0.24201254092622548,218.26252929202747,0.49115012492984533,218.51166708301753,blank,,,,,0.24201254092622548,218.26252929202747,0.49115012492984533,218.51166708301753,0.9426645829807967,218.96318087505642,,0.9420125409262254,218.96318191697355,0.6982816331716695,1.640294174097895,219.66154954198282,none,cd_none,,,,,,,post_reversal,right,left,218.67609325004742,0.4132846250431612,0,218.01362095796503,219.66154954198282,1.6479285840177909,main,4
107,2,9,mixed04_level2_block09,17,active,shape_present,shape_present,knz_wob.png,shape,meaningful,frequent,shape_absent,right,top,,0.24945429200306535,220.02041387499776,0.49129470891784877,220.26225429202896,deviant,0.16377811201051573,deviant.wav,0.403885249979794,220.17484595801216,0.24945429200306535,220.02041387499776,0.49129470891784877,220.26225429202896,0.9496705000055954,220.72062945796642,,0.9494542920030653,220.72063062503003,0.789291918356051,1.7387462103591163,221.51000616699457,delayed,cd_delayed,1.0204459169181064,220.79140620795079,1.0204459169181064,220.79140620795079,0.37513212498743087,,post_reversal,right,left,220.416565792053,0.39585949992761016,0,219.66168379201554,221.51000616699457,1.848322374979034,main,4
108,2,9,mixed04_level2_block09,18,active,shape_present,face_absent,faa29.png,face,ambiguous,rare,shape_absent,left,bottom,,0.24180454097222537,221.87494691705797,0.49101750005502254,222.12415983295068,standard,-0.18874509528546637,std.wav,0.05144154105801135,221.68458470795304,0.24180454097222537,221.87494691705797,0.49101750005502254,222.12415983295068,0.9426282499916852,222.5757699169917,,0.9418045409722253,222.57577091699932,0.37405852940402773,1.3968332005764914,223.03011183300987,delayed,cd_delayed,1.3928213330218568,223.02596391702536,1.3928213330218568,223.02596391702536,,,post_reversal,left,,,,0,221.51094716705848,223.03011183300987,1.5191646659513935,main,4
109,2,9,mixed04_level2_block09,19,active,shape_present,shape_present,knz_bow.png,shape,meaningful,frequent,shape_absent,right,top,,0.24969141592737287,223.3908271669643,0.49133066600188613,223.63246587500907,standard,0.12746403247223442,std.wav,0.367619915981777,223.50875554198865,0.24969141592737287,223.3908271669643,0.49133066600188613,223.63246587500907,0.9500511250225827,224.09118658304214,,0.9496914159273728,224.0911879580235,0.669652584062344,1.6193439999897168,224.7605569580337,delayed,cd_delayed,1.286943415994756,224.4280792500358,1.286943415994756,224.4280792500358,0.4220610000193119,,post_reversal,right,right,224.00629291695077,0.6151910000480711,1,223.03026533301454,224.7605569580337,1.730291625019163,main,4
110,2,9,mixed04_level2_block09,20,active,shape_present,shape_present,knz_bow.png,shape,meaningful,frequent,shape_absent,right,bottom,,0.2495034170569852,225.12437979201786,0.49108595901634544,225.36596212501172,standard,0.18663142556491175,std.wav,0.4272007090039551,225.30207712505944,0.2495034170569852,225.12437979201786,0.49108595901634544,225.36596212501172,0.9499221249716356,225.82479770795908,,0.9495034170569852,225.82479862496257,0.8528438285240156,1.8023472455810008,226.67740150005557,none,cd_none,,,,,,,post_reversal,right,left,225.4550384170143,0.33039112493861467,0,224.76070991705637,226.67740150005557,1.9166915829991922,main,4
111,2,9,mixed04_level2_block09,21,active,shape_present,shape_present,knz_bow.png,shape,meaningful,frequent,shape_absent,right,top,,0.24957579106558114,227.04115437495057,0.49134299997240305,227.28292170795612,standard,0.1113470243911383,std.wav,0.35223833296913654,227.1438173330389,0.24957579106558114,227.04115437495057,0.49134299997240305,227.28292170795612,0.9500887909671292,227.74166695796885,,0.9495757910655811,227.74166787497234,0.7283403285229695,1.6779161195885506,228.470248208032,delayed,cd_delayed,1.0048837079666555,227.79646283295006,1.0048837079666555,227.79646283295006,0.4334700829349458,,post_reversal,right,left,227.36326633300632,0.32183783396612853,0,226.67758608295117,228.470248208032,1.792662125080824,main,4
112,2,9,mixed04_level2_block09,22,active,shape_present,shape_present,knz_wob.png,shape,meaningful,frequent,shape_absent,right,top,,0.24947216699365526,228.84960750001483,0.49906633305363357,229.09920179203618,standard,-0.13737442779947748,std.wav,0.10363466700073332,228.7037704170216,0.24947216699365526,228.84960750001483,0.49906633305363357,229.09920179203618,0.9501899579772726,229.55032491695601,,0.9494721669936552,229.55032595805824,0.28376282969505057,1.2332349966887057,229.83427345799282,delayed,cd_delayed,0.9502993329660967,229.55043499998283,0.9502993329660967,229.55043499998283,0.4984454159857705,,post_reversal,right,left,229.0523084170418,0.2023817499866709,0,228.47040850005578,229.83427345799282,1.3638649579370394,main,4
113,2,9,mixed04_level2_block09,23,active,shape_present,face_present,fpa04.png,face,meaningful,rare,shape_absent,left,bottom,,0.24582620803266764,230.19529408297967,0.48791566700674593,230.43738354195375,standard,0.18960428195006357,std.wav,0.4303620420396328,230.3798305420205,0.24582620803266764,230.19529408297967,0.48791566700674593,230.43738354195375,0.9462576250080019,230.89572520798538,,0.9458262080326676,230.89572658296674,0.3627924954194959,1.3086187034521635,231.25908320804592,delayed,cd_delayed,0.9669765420258045,230.9164444169728,0.9669765420258045,230.9164444169728,0.40535316697787493,,post_reversal,right,left,230.51139333297033,0.31579716701526195,0,229.83442662504967,231.25908320804592,1.4246565829962492,main,4
114,2,9,mixed04_level2_block09,24,active,shape_present,shape_present,knz_bow.png,shape,meaningful,frequent,shape_absent,right,top,,0.241897749947384,231.62886137503665,0.48341833299491554,231.87038183305413,standard,0.03907757616888918,std.wav,0.2793722919886932,231.66633641696535,0.241897749947384,231.62886137503665,0.48341833299491554,231.87038183305413,0.9428720829309896,232.32983525004238,,0.941897749947384,232.3298362919595,0.8895808353832244,1.8314785853306084,233.21943887497764,delayed,cd_delayed,1.0469135419698432,232.4338774170028,1.0469135419698432,232.4338774170028,0.45202562503982335,,post_reversal,right,right,231.98213849996682,0.35299016698263586,1,231.2592337919632,233.21943887497764,1.9602050830144435,main,4
115,2,9,mixed04_level2_block09,25,active,shape_present,shape_present,knz_wob.png,shape,meaningful,frequent,shape_absent,right,top,,0.24933595908805728,233.6033567499835,0.49109083402436227,233.84511150000617,standard,0.10287303668562287,std.wav,0.34321575006470084,233.69723666703794,0.24933595908805728,233.6033567499835,0.49109083402436227,233.84511150000617,0.9501324590528384,234.3041525420267,,0.9493359590880572,234.30415345798247,0.3385458739417565,1.2878818330298136,234.64251366700046,none,cd_none,,,,,,,post_reversal,right,left,234.14555262494832,0.5419477079994977,0,233.21962179196998,234.64251366700046,1.4228918750304729,main,4
116,2,9,mixed04_level2_block09,26,baseline,shape_present,,,,,baseline,shape_absent,,,,,,,,blank,,,,,,,,,,,234.64495220803656,,,1.3342788635450007,,,,,,,,,,,,,,,,,234.64269041700754,235.9792647920549,1.3365743750473484,main,4
117,2,9,mixed04_level2_block09,27,baseline,shape_present,,,,,baseline,shape_absent,,,,,,,,blank,,,,,,,,,,,235.9873385829851,,,1.555223966948948,,,,,,,,,,,,,,,,,235.97936341702007,237.54262062499765,1.5632572079775855,main,4
118,2,9,mixed04_level2_block09,28,baseline,shape_present,,,,,baseline,shape_absent,,,,,,,,blank,,,,,,,,,,,237.54965654201806,,,1.0601296263367843,,,,,,,,,,,,,,,,,237.54307187499944,238.60980158299208,1.0667297079926357,main,4
