trial_global_index,level,block,block_name,trial_in_block,trial_type,standard_category,stimulus_category,stimulus_file,stimulus_family,stimulus_meaning,frequency_class,omitted_category,target_side,visual_distractor_pos,visual_distractor_offset_s,visual_distractor_onset_s,visual_distractor_onset_global_s,visual_distractor_offset_time_s,visual_distractor_offset_global_s,auditory_class,auditory_offset_s,paired_tone_file,paired_tone_onset_s,paired_tone_onset_global_s,visual_onset_s,visual_onset_global_s,visual_offset_s,visual_offset_global_s,response_window_end_s,response_window_end_global_s,baseline_onset_global_s,post_mask_start_s,post_mask_start_global_s,post_mask_duration_s,post_mask_end_s,post_mask_end_global_s,corollary_mode,cd_condition,cd_feedback_onset_s,cd_feedback_onset_global_s,corollary_onset_s,corollary_onset_global_s,cd_feedback_delay_from_response_s,corollary_delay_from_response_s,reversal_phase,correct_response,response,response_onset_global_s,rt_s,accuracy,trial_start_global_s,trial_end_global_s,trial_duration_s,phase,mixed_block_index
1,2,0,practice_level2,1,active,face_present,shape_present,knz_bow.png,shape,meaningful,rare,face_absent,right,top,,0.24962895800126716,12.533047000004444,0.49957366699527483,12.782991750005749,standard,0.2110003369629414,std.wav,0.45168258299236186,12.735099666999304,0.24962895800126716,12.533047000004444,0.49957366699527483,12.782991750005749,0.949910416995408,13.23332745800144,,0.9496289580012671,13.233328667003661,0.5768480061319383,1.5264769641332054,13.81007191700337,immediate,cd_immediate,0.5924379999923985,12.875855292004417,0.5924379999923985,12.875855292004417,0.0003387500037206337,0.0003387500037206337,,right,left,12.875792999999248,0.34247029198741075,0,12.188975166995078,13.81007191700337,1.6210967500082916,practice,
2,2,0,practice_level2,2,active,face_present,face_present,fpa27.png,face,meaningful,frequent,face_absent,left,top,,0.24180975000490434,14.058492541997111,0.491321000008611,14.308003875004943,blank,,,,,0.24180975000490434,14.058492541997111,0.491321000008611,14.308003875004943,0.9422034580056788,14.758885500006727,,0.9418097500049043,14.758886458002962,0.8346338604361665,1.7764436104410708,15.594117707994883,immediate,cd_immediate,0.6130710419965908,14.429753374992288,0.6130710419965908,14.429753374992288,0.00035429198760539293,0.00035429198760539293,,left,left,14.429661832997226,0.37090700000408106,1,13.810267749999184,15.594117707994883,1.7838499579956988,practice,
3,2,0,practice_level2,3,active,face_present,face_present,fpa06.png,face,meaningful,frequent,face_absent,left,top,,0.2497054580016993,15.93303366699547,0.4996051250054734,16.182932708004955,deviant,0.17700268987585233,deviant.wav,0.41755116599961184,16.1008785419981,0.2497054580016993,15.93303366699547,0.4996051250054734,16.182932708004955,0.9507054160058033,16.63403245799418,,0.9497054580016993,16.63403337499767,0.45065855370120683,1.4003640117029061,17.08433304200298,immediate,cd_immediate,0.557382041006349,16.24070962499536,0.557382041006349,16.24070962499536,0.00037116599560249597,0.00037116599560249597,,left,left,16.240625791993807,0.30730541700904723,1,15.594266832995345,17.08433304200298,1.4900662090076366,practice,
4,2,0,practice_level2,4,active,face_present,face_present,fpa18.png,face,meaningful,frequent,face_absent,left,top,,0.250009958006558,17.424746582997614,0.49166741700901184,17.666404042000067,standard,0.03404874536766972,std.wav,0.2744764580129413,17.449212791994796,0.250009958006558,17.424746582997614,0.49166741700901184,17.666404042000067,0.950026667007478,18.124762999999803,,0.950009958006558,18.12476437499572,0.767247188224581,1.717257146231139,18.892606458000955,immediate,cd_immediate,0.5658998750004685,17.740636250004172,0.5658998750004685,17.740636250004172,0.0003369999903952703,0.0003369999903952703,,left,left,17.740558791992953,0.3155529170035152,1,17.08448354199936,18.892606458000955,1.8081229160015937,practice,
5,3,0,practice_level3,1,active,face_present,face_present,fpa20.png,face,meaningful,frequent,shape_present,left,top,,0.24992062500678003,32.383031624995056,0.4999293330038199,32.63304062500538,standard,-0.13291102983129433,std.wav,0.10727620800025761,32.24038729199674,0.24992062500678003,32.383031624995056,0.4999293330038199,32.63304062500538,0.9508802909986116,33.08399095799541,,0.94992062500678,33.083992291998584,0.7627607188727517,1.7126813438795316,33.84583512500103,immediate,cd_immediate,0.6399346660036827,32.77304579199699,0.6399346660036827,32.77304579199699,0.00037900000461377203,0.00037900000461377203,post_reversal,right,left,32.77298391700606,0.38963504099228885,0,32.040564791997895,33.84583512500103,1.8052703330031363,practice,
6,3,0,practice_level3,2,active,face_present,face_absent,faa30.png,face,ambiguous,rare,shape_present,right,top,,0.24973820899322163,34.183037374998094,0.4917031249933643,34.42500191699946,standard,0.047355524095678725,std.wav,0.2878956670028856,34.221194208003,0.24973820899322163,34.183037374998094,0.4917031249933643,34.42500191699946,0.9497629999968922,34.88306116699823,,0.9497382089932216,34.88306208299764,0.5509557204041037,1.5006939293973254,35.4341919169965,immediate,cd_immediate,0.5097894999926211,34.44308808300411,0.5097894999926211,34.44308808300411,0.0003512909897835925,0.0003512909897835925,post_reversal,left,right,34.443009583003004,0.2597000000096159,0,33.84601841699623,35.4341919169965,1.5881735000002664,practice,
7,3,0,practice_level3,3,active,face_present,face_present,fpa22.png,face,meaningful,frequent,shape_present,left,bottom,,0.24973387499630917,35.77472616700106,0.4914960419991985,36.01648783299606,deviant,0.003058770166561725,deviant.wav,0.2497909579979023,35.774782332999166,0.24973387499630917,35.77472616700106,0.4914960419991985,36.01648783299606,0.9502432919980492,36.47523466699931,,0.9497338749963091,36.4752357499965,0.8628247711746555,1.8125586461709646,37.33823166700313,immediate,cd_immediate,0.5400098749960307,36.065001416995074,0.5400098749960307,36.065001416995074,0.00034579199564177543,0.00034579199564177543,post_reversal,right,left,36.06492254200566,0.28993020800407976,0,35.43436391699652,37.33823166700313,1.9038677500066115,practice,
8,3,0,practice_level3,4,active,face_present,face_present,fpa24.png,face,meaningful,frequent,shape_present,left,top,,0.24941116699483246,37.682752749999054,0.49156037499778904,37.924901749996934,standard,-0.07901752496645789,std.wav,0.16152941700420342,37.59487087499292,0.24941116699483246,37.682752749999054,0.49156037499778904,37.924901749996934,0.9495340830035275,38.382875291994424,,0.9494111669948324,38.382876749994466,0.6851087423375892,1.6345199093324216,39.06837862500106,immediate,cd_immediate,0.554686417002813,37.98802762500418,0.554686417002813,37.98802762500418,0.0003624170058174059,0.0003624170058174059,post_reversal,right,left,37.98793658299837,0.3049128330021631,0,37.338420083004166,39.06837862500106,1.7299585419968935,practice,
9,2,10,mixed01_level2_block10,1,active,shape_absent,shape_absent,nknz_wob.png,shape,ambiguous,frequent,shape_present,left,bottom,,0.24950137500127312,39.40825816699362,0.499273458000971,39.65802975000406,standard,-0.2290822252406647,std.wav,0.011329374989145435,39.170086291996995,0.24950137500127312,39.40825816699362,0.499273458000971,39.65802975000406,0.950085874996148,40.1088413749967,,0.9495013750012731,40.108842332992936,0.8085773767593905,1.7580787517606635,40.91689987499558,immediate,cd_immediate,0.49945320800179616,39.65820912500203,0.49945320800179616,39.65820912500203,0.0074630830058595166,0.0074630830058595166,,left,left,39.65810775000136,0.24248874999466352,1,39.07142366700282,40.91689987499558,1.8454762079927605,main,1
10,2,10,mixed01_level2_block10,2,active,shape_absent,shape_absent,nknz_wob.png,shape,ambiguous,frequent,shape_present,left,top,,0.2496538330015028,41.257916624992504,0.4915351250092499,41.49979745800374,deviant,0.014231382638399404,deviant.wav,0.2550774170085788,41.26333954199799,0.2496538330015028,41.257916624992504,0.4915351250092499,41.49979745800374,0.9501766670000507,41.95843841700116,,0.9496538330015027,41.9584393749974,0.7669149490236191,1.7165687820251219,42.72498329200607,immediate,cd_immediate,0.5646269170101732,41.57288904199959,0.5646269170101732,41.57288904199959,0.0003526250075083226,0.0003526250075083226,,left,left,41.57281054199848,0.3146204590011621,1,40.91706133300613,42.72498329200607,1.8079219589999411,main,1
11,2,10,mixed01_level2_block10,3,active,shape_absent,shape_absent,nknz_wob.png,shape,ambiguous,frequent,shape_present,left,bottom,,0.24942583301162813,43.06603200000245,0.49156204200698994,43.30816779199813,standard,0.09640694822687229,std.wav,0.3373397920076968,43.153945832993486,0.24942583301162813,43.06603200000245,0.49156204200698994,43.30816779199813,0.950381708011264,43.7669869579986,,0.9494258330116281,43.766987916998914,0.49432098342486014,1.4437468164364882,44.26056308299303,immediate,cd_immediate,0.5563406250003027,43.37294629200187,0.5563406250003027,43.37294629200187,0.0003479169972706586,0.0003479169972706586,,left,left,43.37286670799949,0.3065668749914039,1,42.72514791699359,44.26056308299303,1.5354151659994386,main,1
12,2,10,mixed01_level2_block10,4,active,shape_absent,shape_absent,nknz_wob.png,shape,ambiguous,frequent,shape_present,left,bottom,,0.2496680420008488,44.5993868749938,0.49186154200288,44.8415799170034,standard,0.23017605762456128,std.wav,0.47056266700383276,44.8202809170034,0.2496680420008488,44.5993868749938,0.49186154200288,44.8415799170034,0.9497635420120787,45.29948141699424,,0.9496680420008488,45.29948237500503,0.48967449480308617,1.439342536803935,45.79003120800189,immediate,cd_immediate,0.5870850840001367,44.93680354200478,0.5870850840001367,44.93680354200478,0.0003112499980488792,0.0003112499980488792,,left,left,44.936721499994746,0.337105792001239,1,44.26074458299263,45.79003120800189,1.529286625009263,main,1
13,2,10,mixed01_level2_block10,5,active,shape_absent,shape_absent,nknz_bow.png,shape,ambiguous,frequent,shape_present,left,top,,0.2496967499901075,46.13272616699396,0.4913297919993056,46.37435879200348,standard,0.07052595677180507,std.wav,0.3112319999927422,46.19426062499406,0.2496967499901075,46.13272616699396,0.4913297919993056,46.37435879200348,0.9500760419905419,46.8331043329963,,0.9496967499901074,46.83310524999979,0.5505258832056934,1.5002226331958008,47.38381524999568,immediate,cd_immediate,0.61982037499547,46.50284904199361,0.61982037499547,46.50284904199361,0.00034341700666118413,0.00034341700666118413,,left,left,46.50277141699917,0.36978020799870137,1,45.790194582994445,47.38381524999568,1.5936206670012325,main,1
14,2,10,mixed01_level2_block10,6,active,shape_absent,shape_absent,nknz_bow.png,shape,ambiguous,frequent,shape_present,left,bottom,,0.24966241700167302,47.72437691700179,0.4914740000094753,47.96618720800325,deviant,0.009173045833334309,deviant.wav,0.24973991700971965,47.72445316700032,0.24966241700167302,47.72437691700179,0.4914740000094753,47.96618720800325,0.9498753750085598,48.4245879999944,,0.949662417001673,48.42458895800519,0.7022815311554331,1.651943948157106,49.12700587499421,immediate,cd_immediate,0.5140550000069197,47.98876808299974,0.5140550000069197,47.98876808299974,0.0003375410014996305,0.0003375410014996305,,left,left,47.98868841699732,0.2640550420037471,1,47.38398633300676,49.12700587499421,1.7430195419874508,main,1
15,2,10,mixed01_level2_block10,7,active,shape_absent,face_present,fpa22.png,face,meaningful,rare,shape_present,right,bottom,,0.24859550000110175,49.38272362499265,0.4902467080100905,49.624374749997514,blank,,,,,0.24859550000110175,49.38272362499265,0.4902467080100905,49.624374749997514,0.9493613750091754,50.08348924999882,,0.9485955000011017,50.08349066700612,0.25724108598003725,1.2058365859811389,50.33997491700575,immediate,cd_immediate,0.5540040000050794,49.6881318329979,0.5540040000050794,49.6881318329979,0.00036037499376107007,0.00036037499376107007,,right,right,49.68803404200298,0.3050481250102166,1,49.127168207996874,50.33997491700575,1.2128067090088734,main,1
16,2,10,mixed01_level2_block10,8,active,shape_absent,face_absent,faa27.png,face,ambiguous,rare,shape_present,right,top,,0.2421156669879565,50.675130917006754,0.4913407499989262,50.924356125004124,standard,-0.17280206278578222,std.wav,0.06784054198942613,50.500855749996845,0.2421156669879565,50.675130917006754,0.4913407499989262,50.924356125004124,0.9424168329860549,51.375431458000094,,0.9421156669879565,51.375432457993156,0.5310275176132164,1.4731431846011729,51.90707783300604,immediate,cd_immediate,0.5937315829942236,51.02674662499339,0.5937315829942236,51.02674662499339,0.00036258299951441586,0.00036258299951441586,,right,right,51.026663750002626,0.35125333300675265,1,50.340112499994575,51.90707783300604,1.566965333011467,main,1
17,2,10,mixed01_level2_block10,9,active,shape_absent,shape_absent,nknz_wob.png,shape,ambiguous,frequent,shape_present,left,top,,0.24943333299597725,52.24110679200385,0.49101812500157394,52.48269166699902,standard,-0.018740152104100877,std.wav,0.2217266249936074,52.21340045800025,0.24943333299597725,52.24110679200385,0.49101812500157394,52.48269166699902,0.9494773750047898,52.94115016699652,,0.9494333329959772,52.94115112499276,0.49002066989051435,1.4394540028864915,53.43193354200048,immediate,cd_immediate,0.5571535829949426,52.5488267079927,0.5571535829949426,52.5488267079927,0.0003643749951152131,0.0003643749951152131,,left,left,52.54874691700388,0.3073558750038501,1,51.907258332998026,53.43193354200048,1.524675209002453,main,1
18,2,10,mixed01_level2_block10,10,active,shape_absent,shape_absent,nknz_bow.png,shape,ambiguous,frequent,shape_present,left,bottom,,0.24964337499113753,53.77438470799825,0.4917807079909835,54.01652200000535,standard,-0.20620507585718553,std.wav,0.034864624991314486,53.559605874994304,0.24964337499113753,53.77438470799825,0.4917807079909835,54.01652200000535,0.9497602919873316,54.47450095799286,,0.9496433749911375,54.4745019999973,0.3357525710922207,1.2853959460833582,54.810328042003675,immediate,cd_immediate,0.4618827499944018,53.986623791992315,0.4618827499944018,53.986623791992315,0.00035775000287685543,0.00035775000287685543,,left,left,53.98653545799607,0.21188162500038743,1,53.43208670799504,54.810328042003675,1.378241334008635,main,1
19,2,10,mixed01_level2_block10,11,active,shape_absent,face_absent,faa08.png,face,ambiguous,rare,shape_present,right,top,,0.24193833400204312,55.14161341699946,0.4832975000026636,55.382972374995006,standard,-0.22413088663232425,std.wav,0.016484834006405436,54.91616070800228,0.24193833400204312,55.14161341699946,0.4832975000026636,55.382972374995006,0.9424695420020726,55.84214399999473,,0.9419383340020431,55.84214495800552,0.3801864754842614,1.3221248094863045,56.22193608300586,immediate,cd_immediate,0.5128643339994596,55.41253954199783,0.5128643339994596,55.41253954199783,0.0003362499992363155,0.0003362499992363155,,right,right,55.4124630419974,0.2705897499981802,1,54.81050054199295,56.22193608300586,1.4114355410129065,main,1
20,2,10,mixed01_level2_block10,12,active,shape_absent,shape_absent,nknz_bow.png,shape,ambiguous,frequent,shape_present,left,top,,0.24973683300777338,56.55776270800561,0.4917307499999879,56.79975645800005,standard,0.17309324585477753,std.wav,0.4140309159993194,56.722056250000605,0.24973683300777338,56.55776270800561,0.4917307499999879,56.79975645800005,0.9505250830115983,57.25855025000055,,0.9497368330077733,57.258551292004995,0.8829269267849635,1.8326637597927369,58.14121400000295,immediate,cd_immediate,0.5314376250025816,56.839463583004544,0.5314376250025816,56.839463583004544,0.0003205840039299801,0.0003205840039299801,,left,left,56.839389874992776,0.28138020799087826,1,56.22207950000302,58.14121400000295,1.9191344999999274,main,1
21,2,10,mixed01_level2_block10,13,active,shape_absent,shape_absent,nknz_bow.png,shape,ambiguous,frequent,shape_present,left,bottom,,0.24956054199719802,58.4829279169935,0.49095837499771733,58.72432550000667,standard,-0.053502071171625726,std.wav,0.18713233299786225,58.420499792002374,0.24956054199719802,58.4829279169935,0.49095837499771733,58.72432550000667,0.9500382080004783,59.18340470800467,,0.949560541997198,59.18340566700499,0.3458450232956218,1.2954055652928198,59.52974979199644,immediate,cd_immediate,0.569828250008868,58.80319537500327,0.569828250008868,58.80319537500327,0.0003632080042734742,0.0003632080042734742,,left,left,58.803099374999874,0.31990450000739656,1,58.141393957994296,59.52974979199644,1.388355834002141,main,1
22,2,10,mixed01_level2_block10,14,active,shape_absent,shape_absent,nknz_wob.png,shape,ambiguous,frequent,shape_present,left,top,,0.24203275000036228,59.85827574999712,0.4918296670075506,60.10807304199261,standard,-0.15888039016999997,std.wav,0.08132458300678991,59.6975677080045,0.24203275000036228,59.85827574999712,0.4918296670075506,60.10807304199261,0.9422590830072295,60.55850145799923,,0.9420327500003622,60.558502416999545,0.2754866213432501,1.2175193713436123,60.83470183299505,immediate,cd_immediate,0.5551295000041137,60.17137224999897,0.5551295000041137,60.17137224999897,0.00030670801061205566,0.00030670801061205566,,left,left,60.1712915829994,0.3127900419931393,1,59.5299289169925,60.83470183299505,1.3047729160025483,main,1
23,2,10,mixed01_level2_block10,15,active,shape_absent,shape_absent,nknz_wob.png,shape,ambiguous,frequent,shape_present,left,top,,0.25025766700855456,61.17496270799893,0.491881416994147,61.416584332997445,standard,0.046082490191793835,std.wav,0.28660691699769814,61.21130974999687,0.25025766700855456,61.17496270799893,0.491881416994147,61.416584332997445,0.9507905000064056,61.87549274999765,,0.9502576670085545,61.87549370799388,0.3732323353979872,1.3234900024065417,62.24893920800241,immediate,cd_immediate,0.6109955419960897,61.535698207997484,0.6109955419960897,61.535698207997484,0.00036366700078360736,0.00036366700078360736,,left,left,61.53561345799244,0.36037420798675157,1,60.83484845800558,62.24893920800241,1.4140907499968307,main,1
24,2,10,mixed01_level2_block10,16,active,shape_absent,shape_absent,nknz_wob.png,shape,ambiguous,frequent,shape_present,left,bottom,,0.24963658300112002,62.59106887500093,0.4912863329955144,62.8327187919931,standard,0.1197071645227673,std.wav,0.36049974999332335,62.70193187499535,0.24963658300112002,62.59106887500093,0.4912863329955144,62.8327187919931,0.949981415993534,63.291413541999646,,0.94963658300112,63.29141479199461,0.23462508359140455,1.1842616665925245,63.526607666994096,immediate,cd_immediate,0.5501501249964349,62.89158229199529,0.5501501249964349,62.89158229199529,0.0003844169987132773,0.0003844169987132773,,left,left,62.89149675000226,0.3001291249966016,1,62.249101708002854,63.526607666994096,1.2775059589912416,main,1
25,2,10,mixed01_level2_block10,17,active,shape_absent,shape_absent,nknz_bow.png,shape,ambiguous,frequent,shape_present,left,bottom,,0.24993679199542385,63.86630049999803,0.4918600419914583,64.10822412499692,standard,-0.05572878356829211,std.wav,0.18474574999709148,63.801109708001604,0.24993679199542385,63.86630049999803,0.4918600419914583,64.10822412499692,0.9500595830031671,64.56642312499753,,0.9499367919954238,64.56642429200292,0.7236129857134164,1.6735497777088402,65.2901966250065,immediate,cd_immediate,0.5451187500002561,64.16148249999969,0.5451187500002561,64.16148249999969,0.000353082999936305,0.000353082999936305,,left,left,64.16139679199841,0.29482887500489596,1,63.52682037500199,65.2901966250065,1.7633762500045123,main,1
26,2,10,mixed01_level2_block10,18,active,shape_absent,shape_absent,nknz_bow.png,shape,ambiguous,frequent,shape_present,left,top,,0.24917029100470245,65.62436191699817,0.49079566600266844,65.86598729199613,deviant,0.08596267574153943,deviant.wav,0.3265893329953542,65.70178029200179,0.24917029100470245,65.62436191699817,0.49079566600266844,65.86598729199613,0.9494742910028435,66.32466499999282,,0.9491702910047024,66.3246659580036,0.29576059165605667,1.244930882660759,66.62071895800182,immediate,cd_immediate,0.5881296250008745,65.96332083300513,0.5881296250008745,65.96332083300513,0.00035795899748336524,0.00035795899748336524,,left,left,65.96323916700203,0.3386013749986887,1,65.29035979199398,66.62071895800182,1.3303591660078382,main,1
27,2,10,mixed01_level2_block10,19,active,shape_absent,shape_absent,nknz_bow.png,shape,ambiguous,frequent,shape_present,left,bottom,,0.24995466700056568,66.9579817920021,0.49194733299373183,67.19997387500189,standard,0.0035091311967725414,std.wav,0.25001870800042525,66.95804491700255,0.24995466700056568,66.9579817920021,0.49194733299373183,67.19997387500189,0.9504073330026586,67.65843399999721,,0.9499546670005656,67.65843545799726,0.49870674374665613,1.4486614107472218,68.1572111669957,immediate,cd_immediate,0.4842713329999242,67.19229762500618,0.4842713329999242,67.19229762500618,0.00034066599619109184,0.00034066599619109184,,left,left,67.19222399999853,0.23397600000316743,1,66.62090816699492,68.1572111669957,1.5363030000007711,main,1
28,2,10,mixed01_level2_block10,20,active,shape_absent,shape_absent,nknz_wob.png,shape,ambiguous,frequent,shape_present,left,top,,0.24965345799864735,68.49935724999523,0.49131145799765363,68.74101466700085,standard,0.14414487236187096,std.wav,0.38513125000463333,68.6348345419974,0.24965345799864735,68.49935724999523,0.49131145799765363,68.74101466700085,0.9496726670040516,69.19937524999841,,0.9496534579986473,69.1993761670019,0.8501964546739689,1.7998499126726162,70.04966533300467,immediate,cd_immediate,0.5915237500012154,68.84122687499621,0.5915237500012154,68.84122687499621,0.0003430420038057491,0.0003430420038057491,,left,left,68.84114287499688,0.3415272499987623,1,68.15739875000145,70.04966533300467,1.8922665830032201,main,1
29,2,10,mixed01_level2_block10,21,active,shape_absent,shape_absent,nknz_wob.png,shape,ambiguous,frequent,shape_present,left,top,,0.24942570900020655,70.39100058299664,0.4911902089952491,70.63276487500116,standard,0.13679918971178484,std.wav,0.3768523339967942,70.51842670800397,0.24942570900020655,70.39100058299664,0.4911902089952491,70.63276487500116,0.9503650839906186,71.09193916700315,,0.9494257090002065,71.09194008300256,0.5149484637543787,1.4643741727545851,71.60652083299647,immediate,cd_immediate,0.5577097919886,70.69928483299736,0.5577097919886,70.69928483299736,0.0003614169982029125,0.0003614169982029125,,left,left,70.69920104199264,0.3079226659901906,1,70.04982645799464,71.60652083299647,1.5566943750018254,main,1
30,2,10,mixed01_level2_block10,22,active,shape_absent,face_present,fpa19.png,face,meaningful,rare,shape_present,right,bottom,,0.2419666670029983,71.9335175830056,0.4913876250066096,72.18293875000381,standard,-0.21996327401949148,std.wav,0.020630291997804306,71.7121810420067,0.2419666670029983,71.9335175830056,0.4913876250066096,72.18293875000381,0.9427371250058059,72.63428716700582,,0.9419666670029982,72.63428808300523,0.6451594117305619,1.5871260787335602,73.27912000000651,immediate,cd_immediate,0.48068395799782593,72.17223458300577,0.48068395799782593,72.17223458300577,0.00036679099139291793,0.00036679099139291793,,right,right,72.17214391699235,0.23835050000343472,1,71.60667974999524,73.27912000000651,1.6724402500112774,main,1
31,2,10,mixed01_level2_block10,23,active,shape_absent,shape_absent,nknz_bow.png,shape,ambiguous,frequent,shape_present,left,top,,0.24983704200712964,73.61611208299291,0.5000460840092273,73.86632095799723,standard,0.20375166819300183,std.wav,0.44434475000889506,73.81061937499908,0.24983704200712964,73.61611208299291,0.5000460840092273,73.86632095799723,0.950845291998121,74.31711945800635,,0.9498370420071296,74.31712049999624,0.8189679989262109,1.7688050409333405,75.13545933300338,immediate,cd_immediate,0.6238325000012992,73.99010741700477,0.6238325000012992,73.99010741700477,0.0003657079942058772,0.0003657079942058772,,left,left,73.99001933299587,0.3736297499999637,1,73.27928454200446,75.13545933300338,1.8561747909989208,main,1
32,2,10,mixed01_level2_block10,24,active,shape_absent,face_present,fpa04.png,face,meaningful,rare,shape_present,right,top,,0.24940166699525435,75.47433629199804,0.491023332986515,75.71595795800386,standard,0.01565984919656349,std.wav,0.25581004199921153,75.48074433300644,0.24940166699525435,75.47433629199804,0.491023332986515,75.71595795800386,0.9497427499882178,76.17467691699858,,0.9494016669952543,76.17467787499481,0.3499937495151279,1.2993954165103823,76.5246664169972,immediate,cd_immediate,0.5352159169997321,75.76015041700157,0.5352159169997321,75.76015041700157,0.0003326670121168718,0.0003326670121168718,,right,right,75.76007416700304,0.2854815829923609,1,75.13561287500488,76.5246664169972,1.3890535419923253,main,1
33,2,10,mixed01_level2_block10,25,active,shape_absent,shape_absent,nknz_wob.png,shape,ambiguous,frequent,shape_present,left,top,,0.24968937500671018,76.78268762500375,0.49138083300204016,77.02437895799812,blank,,,,,0.24968937500671018,76.78268762500375,0.49138083300204016,77.02437895799812,0.9506229580001673,77.48362041699875,,0.9496893750067101,77.48362141700636,0.21523140124027457,1.1649207762469846,77.69840933299565,immediate,cd_immediate,0.5790389580070041,77.11203679199389,0.5790389580070041,77.11203679199389,0.0003729169984580949,0.0003729169984580949,,left,left,77.11194554199756,0.32897666600183584,1,76.52484412500053,77.69840933299565,1.173565207995125,main,1
34,2,10,mixed01_level2_block10,26,baseline,shape_absent,,,,,baseline,shape_present,,,,,,,,blank,,,,,,,,,,,77.69980479200603,,,1.4101651101113948,,,,,,,,,,,,,,,,,77.69854137499351,79.1100025420019,1.4114611670083832,main,1
35,2,10,mixed01_level2_block10,27,baseline,shape_absent,,,,,baseline,shape_present,,,,,,,,blank,,,,,,,,,,,79.11660933299572,,,0.9856886209512288,,,,,,,,,,,,,,,,,79.11010325000098,80.10234841700003,0.9922451669990551,main,1
36,2,10,mixed01_level2_block10,28,baseline,shape_absent,,,,,baseline,shape_present,,,,,,,,blank,,,,,,,,,,,80.10826329200063,,,1.2553721224318939,,,,,,,,,,,,,,,,,80.10245008299535,81.36367662499833,1.2612265420029871,main,1
37,2,9,mixed02_level2_block09,1,active,face_absent,face_absent,faa08.png,face,ambiguous,frequent,face_present,right,top,,0.2491712499904679,81.69933950000268,0.49102254200261086,81.94119070800662,standard,0.22323077777344663,std.wav,0.4642765419994248,81.9144446249993,0.2491712499904679,81.69933950000268,0.49102254200261086,81.94119070800662,0.9498884170025121,82.40005591699446,,0.9491712499904679,82.4000570000062,0.24850227308164097,1.1976735230721087,82.64787266700296,none,cd_none,,,,,,,,right,right,82.06987754200236,0.37026995900669135,1,81.36378987500211,82.64787266700296,1.284082792000845,main,2
38,2,9,mixed02_level2_block09,2,active,face_absent,face_absent,faa23.png,face,ambiguous,frequent,face_present,right,top,,0.24965399999928195,82.99099891699734,0.49131658299302217,83.23266145799425,standard,-0.08228880264533153,std.wav,0.15832904100534506,82.89967391699611,0.24965399999928195,82.99099891699734,0.49131658299302217,83.23266145799425,0.9502745409990894,83.69161870800599,,0.9496539999992819,83.69161966700631,0.6725499814340092,1.6222039814332911,84.36390141700394,none,cd_none,,,,,,,,right,right,83.26790729200002,0.2766432500066003,1,82.64802229199267,84.36390141700394,1.71587912501127,main,2
39,2,9,mixed02_level2_block09,3,active,face_absent,face_absent,faa01.png,face,ambiguous,frequent,face_present,right,bottom,,0.2422013750037877,84.61687912499474,0.49133895900740754,84.86601675000566,blank,,,,,0.2422013750037877,84.61687912499474,0.49133895900740754,84.86601675000566,0.9425637090025702,85.31724091699289,,0.9422013750037876,85.31724195799325,0.3637544777842734,1.305955852788061,85.68089554199832,none,cd_none,,,,,,,,right,right,84.9818339170015,0.36467158400046173,1,84.36406333299237,85.68089554199832,1.3168322090059519,main,2
40,2,9,mixed02_level2_block09,4,active,face_absent,face_absent,faa29.png,face,ambiguous,frequent,face_present,right,bottom,,0.24969866700121202,86.02437395800371,0.491409084002953,86.26608433299407,standard,-0.023822070247295685,std.wav,0.2170639999967534,85.99174004199449,0.24969866700121202,86.02437395800371,0.491409084002953,86.26608433299407,0.9500027500034776,86.72467745799804,,0.949698667001212,86.72467850000248,0.46836991336435085,1.4180685803655628,87.19309591699857,none,cd_none,,,,,,,,right,right,86.32783566700527,0.3031948330026353,1,85.68101433299307,87.19309591699857,1.5120815840055002,main,2
41,2,9,mixed02_level2_block09,5,active,face_absent,face_absent,faa22.png,face,ambiguous,frequent,face_present,right,top,,0.24966008399496786,87.53267445799429,0.4913135419919854,87.77432733299793,deviant,0.10151478178323947,deviant.wav,0.34178654199058656,87.62480066700664,0.24966008399496786,87.53267445799429,0.4913135419919854,87.77432733299793,0.9507053749985062,88.23371862499334,,0.9496600839949678,88.23371954199683,0.6399084417354797,1.5895685257304475,88.87280387499777,none,cd_none,,,,,,,,right,right,87.86182337500213,0.3288755410030717,1,87.19324845800293,88.87280387499777,1.6795554169948446,main,2
42,2,9,mixed02_level2_block09,6,active,face_absent,face_absent,faa18.png,face,ambiguous,frequent,face_present,right,top,,0.24967054100125097,89.20797937500174,0.4997366250026971,89.45804549999593,standard,-0.10937369911406311,std.wav,0.13162674999330193,89.08993537499919,0.24967054100125097,89.20797937500174,0.4997366250026971,89.45804549999593,0.9504027079965454,89.90871083299862,,0.9496705410012509,89.90871187500306,0.47594027417107576,1.4256108151723268,90.38431004200538,none,cd_none,,,,,,,,right,right,89.35778004200256,0.14951558399479836,1,88.87298537499737,90.38431004200538,1.5113246670080116,main,2
43,2,9,mixed02_level2_block09,7,active,face_absent,shape_absent,nknz_bow.png,shape,ambiguous,rare,face_present,left,bottom,,0.24215429100149777,90.7168610420049,0.4913094160001492,90.96601641700545,standard,-0.10842020410894923,std.wav,0.13181908300612122,90.60652608299279,0.24215429100149777,90.7168610420049,0.4913094160001492,90.96601641700545,0.9429551250068471,91.41766141699918,,0.9421542910014977,91.41766237499542,0.7777802433384444,1.7199345343399421,92.19506158299919,none,cd_none,,,,,,,,left,right,91.02672358299606,0.30959095900470857,0,90.38447829200595,92.19506158299919,1.810583290993236,main,2
44,2,9,mixed02_level2_block09,8,active,face_absent,face_absent,faa25.png,face,ambiguous,frequent,face_present,right,bottom,,0.24916441598907113,92.5326822079951,0.49093312499462627,92.77445070800604,standard,-0.11529626589282496,std.wav,0.12514687499788124,92.40866445799475,0.24916441598907113,92.5326822079951,0.49093312499462627,92.77445070800604,0.950149665994104,93.23366683299537,,0.9491644159890711,93.23366783300298,0.7741512675971178,1.723315683586189,94.0076774170011,none,cd_none,,,,,,,,right,right,92.79768099999637,0.26473550000810064,1,92.19520987500437,94.0076774170011,1.8124675419967389,main,2
45,2,9,mixed02_level2_block09,9,active,face_absent,face_absent,faa27.png,face,ambiguous,frequent,face_present,right,bottom,,0.2492527910071658,94.34935508300259,0.4914532910042908,94.5915554999956,standard,-0.11288838705064086,std.wav,0.1274254580057459,94.22752791699895,0.2492527910071658,94.34935508300259,0.4914532910042908,94.5915554999956,0.9493198749987641,95.04942145799578,,0.9492527910071658,95.0494224169961,0.38309949429516804,1.3323522853023337,95.4325486250018,none,cd_none,,,,,,,,right,right,94.56162191700423,0.21199783399060834,1,94.0078695830016,95.4325486250018,1.4246790420002071,main,2
46,2,9,mixed02_level2_block09,10,active,face_absent,face_absent,faa12.png,face,ambiguous,frequent,face_present,right,top,,0.2416839590005111,95.76643162500113,0.48358566699607763,96.0083333329967,standard,0.21574213757961075,std.wav,0.4567430000024615,95.98149033299705,0.2416839590005111,95.76643162500113,0.48358566699607763,96.0083333329967,0.9422413340071216,96.46698862500489,,0.941683959000511,96.46698983300303,0.5773147732239101,1.5189987322244212,97.04456629199558,none,cd_none,,,,,,,,right,right,96.10164141700079,0.33492695800669026,1,95.43270575000497,97.04456629199558,1.611860541990609,main,2
47,2,9,mixed02_level2_block09,11,active,face_absent,face_absent,faa20.png,face,ambiguous,frequent,face_present,right,top,,0.2493793749890756,97.38266166699759,0.49169366699061356,97.6249761670042,standard,-0.18218948609793095,std.wav,0.05871441699855495,97.19199737500458,0.2493793749890756,97.38266166699759,0.49169366699061356,97.6249761670042,0.9494044589955593,98.08268641699397,,0.9493793749890755,98.0826875000057,0.2621667344045947,1.2115461093936704,98.34555145799823,none,cd_none,,,,,,,,right,right,97.58657620800659,0.2036472500039963,1,97.04473779200634,98.34555145799823,1.3008136659918819,main,2
48,2,9,mixed02_level2_block09,12,active,face_absent,face_absent,faa04.png,face,ambiguous,frequent,face_present,right,bottom,,0.24197766699944623,98.67496104199381,0.48342891699576285,98.91641229200468,standard,-0.09639308851379727,std.wav,0.14462649999768473,98.57760991700343,0.24197766699944623,98.67496104199381,0.48342891699576285,98.91641229200468,0.9422704589960631,99.37525345799804,,0.9419776669994462,99.37525470799301,0.3800519487148693,1.3220296157143154,99.75580712499504,none,cd_none,,,,,,,,right,right,98.87066437500471,0.1954452920035692,1,98.34569841700431,99.75580712499504,1.4101087079907302,main,2
49,2,9,mixed02_level2_block09,13,active,face_absent,shape_absent,nknz_wob.png,shape,ambiguous,rare,face_present,left,bottom,,0.242151707992889,100.08338516700314,0.4835650000022724,100.32479841700115,deviant,-0.07318875277593295,deviant.wav,0.16755949999787845,100.00879312500183,0.242151707992889,100.08338516700314,0.4835650000022724,100.32479841700115,0.9427530829998432,100.78398599999491,,0.9421517079928889,100.78398712500348,0.29600379419683415,1.238155502189723,101.07978212500166,none,cd_none,,,,,,,,left,left,100.34248020799714,0.2588375830091536,1,99.75596974999644,101.07978212500166,1.3238123750052182,main,2
50,2,9,mixed02_level2_block09,14,active,face_absent,shape_present,knz_wob.png,shape,meaningful,rare,face_present,left,bottom,,0.24175341699447017,101.40807137500087,0.48309824999887496,101.64941620800528,standard,-0.19718249878319727,std.wav,0.04322074999799952,101.2095389580063,0.24175341699447017,101.40807137500087,0.48309824999887496,101.64941620800528,0.9419685419998132,102.10828625000431,,0.9417534169944701,102.10828745800245,0.2597082101003877,1.201461627094858,102.36864487499406,none,cd_none,,,,,,,,left,left,101.74542904199916,0.3371001659979811,1,101.07992920800461,102.36864487499406,1.2887156669894466,main,2
51,2,9,mixed02_level2_block09,15,active,face_absent,face_absent,faa25.png,face,ambiguous,frequent,face_present,right,bottom,,0.24965774999873247,102.70795445800468,0.49110629099595826,102.94940300000599,standard,-0.05445606481347945,std.wav,0.18575429100019392,102.6440510419925,0.24965774999873247,102.70795445800468,0.49110629099595826,102.94940300000599,0.9501543749938719,103.40845033299411,,0.9496577499987324,103.40845141699538,0.6537351152866215,1.603392865285354,104.06260566700075,none,cd_none,,,,,,,,right,right,102.9586804999999,0.2504435000009835,1,102.36879849999968,104.06260566700075,1.6938071670010686,main,2
52,2,9,mixed02_level2_block09,16,active,face_absent,shape_present,knz_wob.png,shape,meaningful,rare,face_present,left,bottom,,0.24931470899900887,104.39938449999318,0.49151024999446236,104.64158008300001,standard,0.02390044447992029,std.wav,0.26428983399819117,104.41435895800532,0.24931470899900887,104.39938449999318,0.49151024999446236,104.64158008300001,0.9495230419997824,105.09959187499771,,0.9493147089990088,105.09959283299395,0.4910454029539394,1.4403601119529483,105.59113645799516,none,cd_none,,,,,,,,left,left,104.68146037499537,0.28180562499619555,1,104.06277175000287,105.59113645799516,1.5283647079922957,main,2
53,2,9,mixed02_level2_block09,17,active,face_absent,face_absent,faa16.png,face,ambiguous,frequent,face_present,right,bottom,,0.24971974999061786,105.93271429199376,0.4919249169906834,106.17491933300334,standard,0.22567550391652963,std.wav,0.4661336669960292,106.14912808299414,0.24971974999061786,105.93271429199376,0.4919249169906834,106.17491933300334,0.9506864999857498,106.63368012499996,,0.9497197499906178,106.63368108299619,0.6781174211957525,1.6278371711863704,107.31135970799369,none,cd_none,,,,,,,,right,right,106.24341312500474,0.3104365420003887,1,105.59130029199878,107.31135970799369,1.7200594159949105,main,2
54,2,9,mixed02_level2_block09,18,active,face_absent,face_absent,faa19.png,face,ambiguous,frequent,face_present,right,top,,0.2418678749963874,107.64181920800183,0.4913609590003034,107.89131237499532,standard,0.22466890580845011,std.wav,0.46532562498759944,107.86527637499967,0.2418678749963874,107.64181920800183,0.4913609590003034,107.89131237499532,0.9424944169877563,108.34244487500109,,0.9418678749963874,108.34244579200458,0.3800937299103224,1.3219616049067098,108.72243962499488,none,cd_none,,,,,,,,right,right,107.94861862499965,0.30651608399057295,1,107.31152445799671,108.72243962499488,1.4109151669981657,main,2
55,2,9,mixed02_level2_block09,19,active,face_absent,face_absent,faa27.png,face,ambiguous,frequent,face_present,right,top,,0.24188158300239593,109.04993725000531,0.49160962500900496,109.29966533300467,standard,-0.13535993556607134,std.wav,0.1047794580081245,108.91283504199237,0.24188158300239593,109.04993725000531,0.49160962500900496,109.29966533300467,0.9421999170008348,109.75025491700217,,0.9418815830023959,109.75025604199618,0.6613937639736416,1.6032753469760375,110.4114122500032,none,cd_none,,,,,,,,right,right,109.28733654199459,0.23709837500064168,1,108.72261141700437,110.4114122500032,1.6888008329988224,main,2
56,2,9,mixed02_level2_block09,20,active,face_absent,face_absent,faa17.png,face,ambiguous,frequent,face_present,right,bottom,,0.2492950840096455,110.74936645799608,0.4909805839997716,110.9910516670061,standard,0.0040268845138939635,std.wav,0.24936383400927298,110.74943450000137,0.2492950840096455,110.74936645799608,0.4909805839997716,110.9910516670061,0.950354459011578,111.4504253329942,,0.9492950840096455,111.45042666699737,0.5382319323212964,1.487527016330942,111.9886276670004,none,cd_none,,,,,,,,right,right,111.04535129200667,0.29571774999203626,1,110.41158674999315,111.9886276670004,1.5770409170072526,main,2
57,2,9,mixed02_level2_block09,21,active,face_absent,face_absent,faa17.png,face,ambiguous,frequent,face_present,right,top,,0.2499019580136519,112.32460195799649,0.4913727910025045,112.56607220800652,standard,0.045521673450868216,std.wav,0.28596170801029075,112.36066095800197,0.2499019580136519,112.32460195799649,0.4913727910025045,112.56607220800652,0.9500029580085538,113.02470199999516,,0.9499019580136518,113.0247030419996,0.41543671270684807,1.3653386707205,113.44034629200178,none,cd_none,,,,,,,,right,right,112.61821716699342,0.29334570799255744,1,111.98878241700004,113.44034629200178,1.4515638750017388,main,2
58,2,9,mixed02_level2_block09,22,active,face_absent,face_absent,faa05.png,face,ambiguous,frequent,face_present,right,bottom,,0.24179320799885318,113.6914395000058,0.4916317080060253,113.94127774999652,blank,,,,,0.24179320799885318,113.6914395000058,0.4916317080060253,113.94127774999652,0.9419287080090726,114.39157449999766,,0.9417932079988531,114.3915755420021,0.2712691046375777,1.2130623126364308,114.66320745799749,none,cd_none,,,,,,,,right,right,113.95500754199747,0.26334870800201315,1,113.44050266699924,114.66320745799749,1.2227047909982502,main,2
59,2,9,mixed02_level2_block09,23,active,face_absent,shape_present,knz_bow.png,shape,meaningful,rare,face_present,left,bottom,,0.24225554200529587,115.0169532919972,0.49131350000970997,115.26601112500066,standard,-0.01796653382098637,std.wav,0.22277704199950676,114.99747474999458,0.24225554200529587,115.0169532919972,0.49131350000970997,115.26601112500066,0.9422734590043547,115.71697045800101,,0.9422555420052958,115.71697145799408,0.48428352691413434,1.4265390689194302,116.20206675000372,none,cd_none,,,,,,,,left,left,115.3632037500065,0.3459669169969857,1,114.6633374170051,116.20206675000372,1.5387293329986278,main,2
60,2,9,mixed02_level2_block09,24,active,face_absent,face_absent,faa18.png,face,ambiguous,frequent,face_present,right,top,,0.24965804199746344,116.54099729200243,0.49133895900740754,116.782678167001,deviant,0.0922834017638764,deviant.wav,0.33237929199822247,116.62371804199938,0.24965804199746344,116.54099729200243,0.49133895900740754,116.782678167001,0.9501743750006426,117.24151279199577,,0.9496580419974634,117.24151375000656,0.24353106985374395,1.1931891118512072,117.48479779199988,none,cd_none,,,,,,,,right,right,116.82312162499875,0.28185745800146833,1,116.20222404200467,117.48479779199988,1.2825737499952083,main,2
61,2,9,mixed02_level2_block09,25,active,face_absent,face_absent,faa27.png,face,ambiguous,frequent,face_present,right,top,,0.2496767499978887,117.84100254200166,0.4913348749978468,118.08266050000384,standard,0.1805720753614231,std.wav,0.4212173330015503,118.01254312500532,0.2496767499978887,117.84100254200166,0.4913348749978468,118.08266050000384,0.9501214159972733,118.54144975000236,,0.9496767499978886,118.54145104199415,0.2741930451864694,1.223869795184358,118.81531012500636,none,cd_none,,,,,,,,right,right,118.13188858299691,0.2906389580020914,1,117.48496862499451,118.81531012500636,1.3303415000118548,main,2
62,2,9,mixed02_level2_block09,26,baseline,face_absent,,,,,baseline,face_present,,,,,,,,blank,,,,,,,,,,,118.82474754200666,,,1.4524780956087282,,,,,,,,,,,,,,,,,118.8155155830027,120.27724245800346,1.4617268750007497,main,2
63,2,9,mixed02_level2_block09,27,baseline,face_absent,,,,,baseline,face_present,,,,,,,,blank,,,,,,,,,,,120.28346974999295,,,1.3037870923610881,,,,,,,,,,,,,,,,,120.27734337499714,121.5872732919961,1.3099299169989536,main,2
64,2,9,mixed02_level2_block09,28,baseline,face_absent,,,,,baseline,face_present,,,,,,,,blank,,,,,,,,,,,121.59162550000474,,,1.2942473466968827,,,,,,,,,,,,,,,,,121.58738716700464,122.88589266699273,1.2985054999880958,main,2
65,2,3,mixed03_level2_block03,1,active,face_present,face_present,fpa07.png,face,meaningful,frequent,shape_present,right,top,,0.2493729580019135,129.65768416700303,0.4910940830013715,129.8994048750028,standard,-0.17538559619726224,std.wav,0.06519558299623895,129.47350649999862,0.2493729580019135,129.65768416700303,0.4910940830013715,129.8994048750028,0.9500735000037821,130.35838400000648,,0.9493729580019135,130.35838541699923,0.6498823366264684,1.599255294628382,131.00787437500549,none,cd_none,,,,,,,,right,right,130.00848058299744,0.3505397080007242,1,129.29472908300522,131.00787437500549,1.713145292000263,main,3
66,2,3,mixed03_level2_block03,2,active,face_present,face_present,fpa23.png,face,meaningful,frequent,shape_present,right,top,,0.24179487500805408,131.35837562500092,0.49141887499717996,131.60799950000364,standard,-0.13526131806008346,std.wav,0.10576879199652467,131.22234945799573,0.24179487500805408,131.35837562500092,0.49141887499717996,131.60799950000364,0.9422177920059767,132.05879770799947,,0.941794875008054,132.05879870799254,0.7249792752220325,1.6667741502300866,132.78418787500414,none,cd_none,,,,,,,,right,right,131.57653141699848,0.21789970899408218,1,131.00803641699895,132.78418787500414,1.776151458005188,main,3
67,2,3,mixed03_level2_block03,3,active,face_present,face_absent,faa17.png,face,ambiguous,rare,shape_present,left,bottom,,0.24915424999198876,133.14101574999222,0.4907887919980567,133.38265033300559,deviant,0.21236416059542929,deviant.wav,0.4532226669980446,133.34508370800177,0.24915424999198876,133.14101574999222,0.4907887919980567,133.38265033300559,0.9493237919959938,133.8411845829978,,0.9491542499919887,133.84118558300543,0.3275740641891096,1.2767283141810983,134.16878420799912,none,cd_none,,,,,,,,left,left,133.44082950000302,0.29952470801072195,1,132.7843577080057,134.16878420799912,1.384426499993424,main,3
68,2,3,mixed03_level2_block03,4,active,face_present,face_present,fpa15.png,face,meaningful,frequent,shape_present,right,bottom,,0.2456948330072919,134.52872783299244,0.49570629200024996,134.7787389580044,standard,0.12702302581935954,std.wav,0.3674980420037173,134.6505307500047,0.2456948330072919,134.52872783299244,0.49570629200024996,134.7787389580044,0.9466539999993984,135.2296860829956,,0.9456948330072918,135.22968708300323,0.3095366122276698,1.2552314452349616,135.53893458300445,none,cd_none,,,,,,,,right,right,134.76126524999563,0.2322572919947561,1,134.16894329199567,135.53893458300445,1.3699912910087733,main,3
69,2,3,mixed03_level2_block03,5,active,face_present,face_present,fpa26.png,face,meaningful,frequent,shape_present,right,top,,0.2421091249998426,135.89595204200305,0.4915472920110915,136.14539041700482,standard,-0.17204517833267916,std.wav,0.0687058750045253,135.72254916699603,0.2421091249998426,135.89595204200305,0.4915472920110915,136.14539041700482,0.942185583000537,136.5960281669977,,0.9421091249998426,136.59602958300093,0.21476007904245836,1.156869204042301,136.81137237499934,none,cd_none,,,,,,,,right,right,136.01943441700132,0.12320337501296308,1,135.53908400000364,136.81137237499934,1.2722883749956964,main,3
70,2,3,mixed03_level2_block03,6,active,face_present,face_absent,faa15.png,face,ambiguous,rare,shape_present,left,bottom,,0.2500100420002127,137.17041541700019,0.5000127919920487,137.42041841699393,standard,-0.1511908402341888,std.wav,0.08929945899581071,137.00970483300625,0.2500100420002127,137.17041541700019,0.5000127919920487,137.42041841699393,0.950017499999376,137.87042279199522,,0.9500100420002127,137.8704241670057,0.8819944560121504,1.832004498012363,138.75345495800138,none,cd_none,,,,,,,,left,right,137.3173012079933,0.14661170799809042,0,136.81154341700312,138.75345495800138,1.9419115409982624,main,3
71,2,3,mixed03_level2_block03,7,active,face_present,face_present,fpa22.png,face,meaningful,frequent,shape_present,right,top,,0.24934866701369174,139.1118201250065,0.4910198750003474,139.3534924169944,standard,0.058475209076596146,std.wav,0.29912612501357216,139.16159750000224,0.24934866701369174,139.1118201250065,0.4910198750003474,139.3534924169944,0.9495371670054737,139.8120086669951,,0.9493486670136917,139.81201004200557,0.7523831325068757,1.7017317995205674,140.56455437499972,none,cd_none,,,,,,,,right,right,139.3392712920031,0.22714333298790734,1,138.75361387500016,140.56455437499972,1.8109404999995604,main,3
72,2,3,mixed03_level2_block03,8,active,face_present,face_present,fpa07.png,face,meaningful,frequent,shape_present,right,top,,0.2419034580088919,140.92073212499963,0.4915797499998007,141.17040845799784,standard,-0.04793098059166537,std.wav,0.1927520830067806,140.8715811669972,0.2419034580088919,140.92073212499963,0.4915797499998007,141.17040845799784,0.9429550420027226,141.62178279200452,,0.9419034580088919,141.62178375000076,0.779747846691901,1.7216513047007929,142.4013660000055,none,cd_none,,,,,,,,right,right,141.15424945800623,0.23325158399529755,1,140.56472283300536,142.4013660000055,1.8366431670001475,main,3
73,2,3,mixed03_level2_block03,9,active,face_present,face_present,fpa10.png,face,meaningful,frequent,shape_present,right,top,,0.24914779201208148,142.76185916700342,0.4909388330124784,143.00365033300477,deviant,0.15876009556055037,deviant.wav,0.39962345801177435,142.91233466699487,0.24914779201208148,142.76185916700342,0.4909388330124784,143.00365033300477,0.9492711250059074,143.46198191700387,,0.9491477920120814,143.4619828750001,0.3873223803995266,1.336470172411608,143.85001275000104,none,cd_none,,,,,,,,right,right,143.09127254200575,0.3291377079876838,1,142.40152470799512,143.85001275000104,1.4484880420059199,main,3
74,2,3,mixed03_level2_block03,10,active,face_present,face_present,fpa15.png,face,meaningful,frequent,shape_present,right,top,,0.24189533400931396,144.10372291700332,0.4834117919963319,144.3452393750049,blank,,,,,0.24189533400931396,144.10372291700332,0.4834117919963319,144.3452393750049,0.9421955840080045,144.8040227080055,,0.9418953340093139,144.80402370799857,0.498811352347009,1.440706686356323,145.30253791699943,none,cd_none,,,,,,,,right,right,144.43208704200515,0.3281051249941811,1,143.85016924999945,145.30253791699943,1.4523686669999734,main,3
75,2,3,mixed03_level2_block03,11,active,face_present,face_present,fpa03.png,face,meaningful,frequent,shape_present,right,top,,0.24195895799493883,145.6540214169945,0.4832636669889325,145.89532574999612,standard,0.013922894774742456,std.wav,0.2547242919972632,145.66678670799593,0.24195895799493883,145.6540214169945,0.4832636669889325,145.89532574999612,0.9425932919984916,146.3546549169987,,0.9419589579949388,146.35465595799906,0.6829241328614907,1.6248830908564296,147.03712970799825,none,cd_none,,,,,,,,right,right,145.92015483300202,0.26586233399575576,1,145.30265745799989,147.03712970799825,1.7344722499983618,main,3
76,2,3,mixed03_level2_block03,12,active,face_present,face_present,fpa12.png,face,meaningful,frequent,shape_present,right,top,,0.24968337500467896,147.39514708299248,0.4913376659969799,147.63680116699834,standard,0.21315306909430254,std.wav,0.45392549999814946,147.59938874999352,0.24968337500467896,147.39514708299248,0.4913376659969799,147.63680116699834,0.9497319160000188,148.09519487500074,,0.9496833750046789,148.09519595799793,0.3368261131101433,1.2865094881148222,148.432297249994,none,cd_none,,,,,,,,right,right,147.70407391700428,0.30866562499431893,1,147.03728762500396,148.432297249994,1.3950096249900525,main,3
77,2,3,mixed03_level2_block03,13,active,face_present,face_present,fpa24.png,face,meaningful,frequent,shape_present,right,bottom,,0.24974458300857805,148.79514937500062,0.49167908300296403,149.03708366700448,standard,-0.09446509206561265,std.wav,0.14647875000082422,148.69188366699382,0.24974458300857805,148.79514937500062,0.49167908300296403,149.03708366700448,0.94998016700265,149.4953843330004,,0.949744583008578,149.4953852500039,0.7318255693295508,1.6815701523381288,150.2276768330048,none,cd_none,,,,,,,,right,right,149.0801579169929,0.28473841698723845,1,148.43247612500272,150.2276768330048,1.7952007080020849,main,3
78,2,3,mixed03_level2_block03,14,active,face_present,face_present,fpa15.png,face,meaningful,frequent,shape_present,right,top,,0.2419399579957826,150.57908470800612,0.49155870800314005,150.82870333299797,standard,0.21737282135587804,std.wav,0.4581863330095075,150.79533066699514,0.2419399579957826,150.57908470800612,0.49155870800314005,150.82870333299797,0.9420341670047492,151.27917824999895,,0.9419399579957826,151.27917925000656,0.6678406747100041,1.6097806327057866,151.9470943750057,none,cd_none,,,,,,,,right,right,150.91111600000295,0.3317562500014901,1,150.22784070800117,151.9470943750057,1.7192536670045229,main,3
79,2,3,mixed03_level2_block03,15,active,face_present,face_absent,faa01.png,face,ambiguous,rare,shape_present,left,bottom,,0.24210116700851358,152.1955844579934,0.48395395900297444,152.43743670800177,blank,,,,,0.24210116700851358,152.1955844579934,0.48395395900297444,152.43743670800177,0.9430205420067068,152.8965027499944,,0.9421011670085135,152.89650379199884,0.4295506970187331,1.3716518640272466,153.32540958300524,none,cd_none,,,,,,,,left,left,152.50505937500566,0.30920595799398143,1,151.94726691700635,153.32540958300524,1.3781426659988938,main,3
80,2,3,mixed03_level2_block03,16,active,face_present,face_present,fpa19.png,face,meaningful,frequent,shape_present,right,bottom,,0.24230108299525455,153.67946200000006,0.49155554099706933,153.92871612499584,deviant,-0.03316037467529567,deviant.wav,0.20754012498946395,153.64470141699712,0.24230108299525455,153.67946200000006,0.49155554099706933,153.92871612499584,0.9427813749935012,154.3799415419926,,0.9423010829952545,154.37994262500433,0.5526608203925236,1.4949619033877781,154.93287154199788,none,cd_none,,,,,,,,right,right,153.96915195799374,0.28941075000329874,1,153.32554395799525,154.93287154199788,1.6073275840026326,main,3
81,2,3,mixed03_level2_block03,17,active,face_present,face_present,fpa23.png,face,meaningful,frequent,shape_present,right,bottom,,0.2494332499918528,155.29516233300092,0.4910709579999093,155.5368000419985,standard,-0.07488295774891354,std.wav,0.1658067079988541,155.21153600000252,0.2494332499918528,155.29516233300092,0.4910709579999093,155.5368000419985,0.9503112079983111,155.99603974999627,,0.9494332499918527,155.99604083299346,0.7006776637655274,1.6501109137573802,156.69633141699887,none,cd_none,,,,,,,,right,right,155.5300372079946,0.23459295800421387,1,154.93303591699805,156.69633141699887,1.7632955000008224,main,3
82,2,3,mixed03_level2_block03,18,active,face_present,face_present,fpa15.png,face,meaningful,frequent,shape_present,right,bottom,,0.24202954200154636,157.04577216699545,0.4916691670077853,157.29541166700074,standard,-0.19488247467599273,std.wav,0.0461659580032574,156.84990849999303,0.24202954200154636,157.04577216699545,0.4916691670077853,157.29541166700074,0.9423514170048293,157.74609316700662,,0.9420295420015463,157.74609412500286,0.7181614141031343,1.6601909561046806,158.46421379200183,none,cd_none,,,,,,,,right,right,157.14588174999517,0.09984483300650027,1,156.69651541700296,158.46421379200183,1.7676983749988722,main,3
83,2,3,mixed03_level2_block03,19,active,face_present,shape_absent,nknz_wob.png,shape,ambiguous,rare,shape_present,left,bottom,,0.24927587500133086,158.82014595800138,0.4910716250014957,159.06194120799773,standard,0.07569316907882251,std.wav,0.3159136670001317,158.88678295799764,0.24927587500133086,158.82014595800138,0.4910716250014957,159.06194120799773,0.9494627500098431,159.52033191699593,,0.9492758750013308,159.5203330420045,0.4428243066124751,1.3921001816138059,159.9637245000049,none,cd_none,,,,,,,,left,left,159.04481779200432,0.22441183299815748,1,158.46436158299912,159.9637245000049,1.499362917005783,main,3
84,2,3,mixed03_level2_block03,20,active,face_present,face_present,fpa19.png,face,meaningful,frequent,shape_present,right,bottom,,0.24984895798843354,160.3201587079966,0.4914894159883261,160.56179895800597,standard,-0.16568572582053975,std.wav,0.07504970800073352,160.14535937500477,0.24984895798843354,160.3201587079966,0.4914894159883261,160.56179895800597,0.9504863749898504,161.02079529200273,,0.9498489579884335,161.02079624999897,0.6153910068110909,1.5652399647995243,161.6356504580035,none,cd_none,,,,,,,,right,right,160.5116671249998,0.19121741699927952,1,159.963892957996,161.6356504580035,1.6717575000075158,main,3
85,2,3,mixed03_level2_block03,21,active,face_present,face_present,fpa19.png,face,meaningful,frequent,shape_present,right,top,,0.2421425420034211,161.98764095800288,0.48372550000203773,162.22922470800404,standard,-0.19127036634017852,std.wav,0.04914820900012273,161.79464683300466,0.2421425420034211,161.98764095800288,0.48372550000203773,162.22922470800404,0.9427352500060806,162.68823316700582,,0.9421425420034211,162.68823429199983,0.29589063229060897,1.23803317429403,162.98433829199348,none,cd_none,,,,,,,,right,right,162.0778595830052,0.08994862499821465,1,161.63580933300545,162.98433829199348,1.3485289589880267,main,3
86,2,3,mixed03_level2_block03,22,active,face_present,shape_absent,nknz_wob.png,shape,ambiguous,rare,shape_present,left,bottom,,0.24176129201077856,163.3371959579963,0.4830950000032317,163.57852941700548,standard,-0.19725687726839794,std.wav,0.04302516700408887,163.1384596669959,0.24176129201077856,163.3371959579963,0.4830950000032317,163.57852941700548,0.942047292002826,164.03748116700444,,0.9417612920107785,164.03748212500068,0.7565367212524856,1.6982980132632641,164.79423829200095,none,cd_none,,,,,,,,left,left,163.60177454199584,0.26429924998956267,1,162.98450058299932,164.79423829200095,1.809737709001638,main,3
87,2,3,mixed03_level2_block03,23,active,face_present,face_present,fpa14.png,face,meaningful,frequent,shape_present,right,top,,0.24970383300387766,165.1537645829958,0.4910999999992782,165.39516033300606,standard,-0.07697082502561317,std.wav,0.16400262499519158,165.06806295800197,0.24970383300387766,165.1537645829958,0.4910999999992782,165.39516033300606,0.9502753330016276,165.85433524999826,,0.9497038330038776,165.8543362920027,0.8381515631891714,1.787855396193049,166.69283308299782,none,cd_none,,,,,,,,right,right,165.4528529579984,0.2988268749904819,1,164.79443016699224,166.69283308299782,1.8984029160055798,main,3
88,2,3,mixed03_level2_block03,24,active,face_present,face_present,fpa07.png,face,meaningful,frequent,shape_present,right,bottom,,0.24177445800160058,167.04563983299886,0.4834880419948604,167.2873532079975,standard,-0.17020533106410654,std.wav,0.07075441699998919,166.87461958300264,0.24177445800160058,167.04563983299886,0.4834880419948604,167.2873532079975,0.9421600420027971,167.7460247919953,,0.9417744580016005,167.7460261249944,0.2428660998430519,1.1846405578446524,167.98888729199825,none,cd_none,,,,,,,,right,right,167.3677299580013,0.3218189170002006,1,166.69302562500525,167.98888729199825,1.2958616669930052,main,3
89,2,3,mixed03_level2_block03,25,active,face_present,face_present,fpa25.png,face,meaningful,frequent,shape_present,right,bottom,,0.24161416699644178,168.34538270799385,0.4830955420038663,168.58686349999334,standard,0.10040552050076118,std.wav,0.34148670799913816,168.44525483300094,0.24161416699644178,168.34538270799385,0.4830955420038663,168.58686349999334,0.9420395420020213,169.0458067080035,,0.9416141669964417,169.04580762499245,0.5446462607448004,1.4862604277412421,169.59090766699228,none,cd_none,,,,,,,,right,right,168.68361245800043,0.33795845799613744,1,167.9890869170049,169.59090766699228,1.6018207499873824,main,3
90,2,3,mixed03_level2_block03,26,baseline,face_present,,,,,baseline,shape_present,,,,,,,,blank,,,,,,,,,,,169.59537024999736,,,1.0318836556742816,,,,,,,,,,,,,,,,,169.59109329199418,170.627263375005,1.036170083010802,main,3
91,2,3,mixed03_level2_block03,27,baseline,face_present,,,,,baseline,shape_present,,,,,,,,blank,,,,,,,,,,,170.62892320800165,,,1.1489252815720805,,,,,,,,,,,,,,,,,170.62735587499628,171.77785845799372,1.150502582997433,main,3
92,2,3,mixed03_level2_block03,28,baseline,face_present,,,,,baseline,shape_present,,,,,,,,blank,,,,,,,,,,,171.78707908300566,,,0.9497052431130278,,,,,,,,,,,,,,,,,171.77795091699227,172.73681929199665,0.9588683750043856,main,3
93,3,11,mixed04_level3_block11,1,active,shape_absent,shape_absent,nknz_bow.png,shape,ambiguous,frequent,face_absent,left,bottom,,0.2494449999940116,173.0951637919934,0.4910846660059178,173.3368034580053,standard,-0.16082967184575686,std.wav,0.08023824999690987,172.92595725000137,0.2494449999940116,173.0951637919934,0.4910846660059178,173.3368034580053,0.9500624159991276,173.79578079200292,,0.9494449999940116,173.79578195800423,0.4236881758255229,1.3731331758195344,174.219660207993,delayed,cd_delayed,0.9501575000031153,173.79587591699965,0.9501575000031153,173.79587591699965,0.5769249590084655,,post_reversal,left,left,173.21923800000513,0.12378754100063816,1,172.73695916699944,174.219660207993,1.482701040993561,main,4
94,3,11,mixed04_level3_block11,2,active,shape_absent,shape_absent,nknz_bow.png,shape,ambiguous,frequent,face_absent,left,top,,0.249728499999037,174.47868833299435,0.4997328749886947,174.72869266700582,blank,,,,,0.249728499999037,174.47868833299435,0.4997328749886947,174.72869266700582,0.9505092920007883,175.1794682079926,,0.949728499999037,175.17946929199388,0.7048739963442034,1.6546024963432404,175.88401470800454,delayed,cd_delayed,1.0625192500010598,175.29147866700077,1.0625192500010598,175.29147866700077,0.4575815000134753,,post_reversal,left,left,174.8341631670046,0.3552092499885475,1,174.21981174999382,175.88401470800454,1.6642029580107192,main,4
95,3,11,mixed04_level3_block11,3,active,shape_absent,shape_absent,nknz_bow.png,shape,ambiguous,frequent,face_absent,left,top,,0.2493172499962384,176.2451449999935,0.4913640000013402,176.48719212500146,standard,0.030637522611627055,std.wav,0.271675583004253,176.26750408299267,0.2493172499962384,176.2451449999935,0.4913640000013402,176.48719212500146,0.9495941250061151,176.94542162500147,,0.9493172499962383,176.94542262499453,0.3664601900485219,1.3157774400447604,177.31249195800046,delayed,cd_delayed,0.94970333299716,176.94553162499506,0.94970333299716,176.94553162499506,0.43662529200082645,,post_reversal,left,left,176.5091758750059,0.2637607910000952,1,175.88414983300027,177.31249195800046,1.4283421250001993,main,4
96,3,11,mixed04_level3_block11,4,active,shape_absent,shape_absent,nknz_bow.png,shape,ambiguous,frequent,face_absent,left,bottom,,0.2419515829969896,177.662106667005,0.48359270799846854,177.90374779200647,standard,-0.12585958502959446,std.wav,0.11494854099873919,177.53510362500674,0.2419515829969896,177.662106667005,0.48359270799846854,177.90374779200647,0.9423173329996644,178.36247158299375,,0.9419515829969896,178.36247254199407,0.4028414720406706,1.3447930550376601,178.76503437499923,delayed,cd_delayed,0.942416999998386,178.36257174999628,0.942416999998386,178.36257174999628,0.3993019999907119,,post_reversal,left,left,177.9635338329972,0.3011634170106845,1,177.31264975000522,178.76503437499923,1.4523846249940107,main,4
97,3,11,mixed04_level3_block11,5,active,shape_absent,shape_absent,nknz_wob.png,shape,ambiguous,frequent,face_absent,left,top,,0.2496752079896396,179.1284622499952,0.4918492500000866,179.37063554199995,standard,-0.1487778178933967,std.wav,0.09207691600022372,178.9708639580058,0.2496752079896396,179.1284622499952,0.4918492500000866,179.37063554199995,0.9499695409904234,179.82875562499976,,0.9496752079896396,179.82875662499282,0.3702140195160416,1.3198892275056813,180.1996522499976,delayed,cd_delayed,0.9500756659981562,179.82886254199548,0.9500756659981562,179.82886254199548,0.4030165830045007,,post_reversal,left,left,179.4261094169924,0.29738387500401586,1,178.7651935419999,180.1996522499976,1.4344587079976918,main,4
