trial_global_index,level,block,block_name,trial_in_block,trial_type,standard_category,stimulus_category,stimulus_file,stimulus_family,stimulus_meaning,frequency_class,omitted_category,target_side,visual_distractor_pos,visual_distractor_offset_s,visual_distractor_onset_s,visual_distractor_onset_global_s,visual_distractor_offset_time_s,visual_distractor_offset_global_s,auditory_class,auditory_offset_s,paired_tone_file,paired_tone_onset_s,paired_tone_onset_global_s,visual_onset_s,visual_onset_global_s,visual_offset_s,visual_offset_global_s,response_window_end_s,response_window_end_global_s,baseline_onset_global_s,post_mask_start_s,post_mask_start_global_s,post_mask_duration_s,post_mask_end_s,post_mask_end_global_s,corollary_mode,cd_condition,cd_feedback_onset_s,cd_feedback_onset_global_s,corollary_onset_s,corollary_onset_global_s,cd_feedback_delay_from_response_s,corollary_delay_from_response_s,reversal_phase,correct_response,response,response_onset_global_s,rt_s,accuracy,trial_start_global_s,trial_end_global_s,trial_duration_s,phase,mixed_block_index
1,1,0,practice_level1,1,active,face_present,face_present,fpa01.png,face,meaningful,frequent,shape_present,left,top,,0.2496469170000637,12.766218333003053,0.4917743750047521,13.008345667003596,standard,0.10008379885106938,std.wav,0.34098712500417605,12.857558542003972,0.2496469170000637,12.766218333003053,0.4917743750047521,13.008345667003596,0.950366250006482,13.46693687500374,,0.9496469170000637,13.466938416997436,0.8285571161107435,1.778204033110807,14.29496037500212,delayed,cd_delayed,1.3096052079999936,13.826176333001058,1.3096052079999936,13.826176333001058,,,,left,,,,0,12.383809250000922,14.29496037500212,1.9111511250011972,practice,
2,1,0,practice_level1,2,active,face_present,face_present,fpa17.png,face,meaningful,frequent,shape_present,left,top,,0.24949924999964423,14.674716624998837,0.49935570800153073,14.924572791998798,standard,-0.011578732811913406,std.wav,0.22868745799496537,14.653903708000144,0.24949924999964423,14.674716624998837,0.49935570800153073,14.924572791998798,0.9505009169952245,15.375716208000085,,0.9494992499996442,15.375717208000424,0.3481490734020485,1.2976483234016927,15.723672250001982,delayed,cd_delayed,0.9506173749978188,15.37583312499919,0.9506173749978188,15.37583312499919,0.41967116700107,,,left,left,14.956449666999106,0.2814469579971046,1,14.295257208003022,15.723672250001982,1.42841504199896,practice,
3,1,0,practice_level1,3,active,face_present,face_present,fpa06.png,face,meaningful,frequent,shape_present,left,top,,0.24250116699840873,16.083718458001385,0.4916432500031078,16.332860708003864,standard,-0.004091979483905411,std.wav,0.2370235420021345,16.078240957998787,0.24250116699840873,16.083718458001385,0.4916432500031078,16.332860708003864,0.9435270000030869,16.7847430000038,,0.9425011669984087,16.78474400000414,0.7565187687723187,1.6990199357707274,17.540947499997856,delayed,cd_delayed,0.9611701250032638,16.80238658300368,0.9611701250032638,16.80238658300368,0.38445762500487035,,,left,left,16.41820470800303,0.33421133299998473,1,15.723876542004291,17.540947499997856,1.8170709579935647,practice,
4,1,0,practice_level1,4,active,face_present,face_present,fpa18.png,face,meaningful,frequent,shape_present,left,bottom,,0.24952912500157254,17.91598329199769,0.4997468330038828,18.166201874999388,standard,0.09671737324111024,std.wav,0.33692716599762207,18.003380875001312,0.24952912500157254,17.91598329199769,0.4997468330038828,18.166201874999388,0.9495608330034884,18.61601383300149,,0.9495291250015725,18.61601504200371,0.5913361722061865,1.540865297207759,19.207994582997344,delayed,cd_delayed,1.4350134580017766,19.10146716699819,1.4350134580017766,19.10146716699819,,,,left,,,,0,17.541156667000905,19.207994582997344,1.6668379159964388,practice,
5,2,0,practice_level2,1,active,face_present,face_present,fpa25.png,face,meaningful,frequent,shape_present,left,bottom,,0.24918391599931056,34.253391416998056,0.49139233300229535,34.49559933300043,standard,0.17514665602609653,std.wav,0.41560870799730765,34.419815041997936,0.24918391599931056,34.253391416998056,0.49139233300229535,34.49559933300043,0.9493308329983847,34.953536958004406,,0.9491839159993105,34.95353791699745,0.597468889137341,1.5466528051366515,35.551876666999306,delayed,cd_delayed,1.0667951659997925,35.07100170799822,1.0667951659997925,35.07100170799822,0.4472773750021588,,post_reversal,right,left,34.62400858299952,0.37033387499832315,0,33.880272750000586,35.551876666999306,1.6716039169987198,practice,
6,2,0,practice_level2,2,active,face_present,face_present,fpa01.png,face,meaningful,frequent,shape_present,left,top,,0.24978754200128606,35.92037583300407,0.4997744169959333,36.17036350000126,standard,-0.08125576258433986,std.wav,0.15969683400180656,35.830286124997656,0.24978754200128606,35.92037583300407,0.4997744169959333,36.17036350000126,0.9505594590009423,36.62114775000373,,0.949787542001286,36.6211492500006,0.6161277902531652,1.5659153322544512,37.23692670799937,delayed,cd_delayed,0.950659624999389,36.62124862500059,0.950659624999389,36.62124862500059,0.41037941600370687,,post_reversal,right,left,36.21114712500275,0.29049266699439613,0,35.552053042003536,37.23692670799937,1.6848736659958377,practice,
7,2,0,practice_level2,3,active,face_present,face_present,fpa03.png,face,meaningful,frequent,shape_present,left,bottom,,0.2417150839974056,37.5954861249993,0.4835041669939528,37.837275124998996,standard,-0.1336817452689194,std.wav,0.10693816699495073,37.46070883300126,0.2417150839974056,37.5954861249993,0.4835041669939528,37.837275124998996,0.9423090839991346,38.296079207997536,,0.9417150839974056,38.29608033299883,0.7724754139881329,1.7141904979855385,39.068850208001095,delayed,cd_delayed,1.027466708997963,38.38123720799922,1.027466708997963,38.38123720799922,0.46746791699843016,,post_reversal,right,left,37.91406508300133,0.31828370800212724,0,37.237111667003774,39.068850208001095,1.8317385409973213,practice,
8,2,0,practice_level2,4,active,face_present,face_present,fpa13.png,face,meaningful,frequent,shape_present,left,top,,0.24962383299862267,39.43704458299908,0.4911854579986539,39.67860454200127,standard,0.13433346231765098,std.wav,0.37524254099844256,39.562661417003255,0.24962383299862267,39.43704458299908,0.4911854579986539,39.67860454200127,0.950559290999081,40.13797833299759,,0.9496238329986226,40.13797941699886,0.4502730897370334,1.399896922735656,40.5878979170011,delayed,cd_delayed,0.9557358329984709,40.14315462500235,0.9557358329984709,40.14315462500235,0.37951062499632826,,post_reversal,right,left,39.76392987500003,0.32660137500351993,0,39.06902358300431,40.5878979170011,1.5188743339967914,practice,
9,2,13,mixed01_level2_block13,1,active,shape_present,shape_present,knz_bow.png,shape,meaningful,frequent,face_absent,left,top,,0.24199450000014622,52.204216582998924,0.4914793749994715,52.45370129200455,standard,-0.22360497076313698,std.wav,0.016539624994038604,51.978761625003244,0.24199450000014622,52.204216582998924,0.4914793749994715,52.45370129200455,0.942936749997898,52.90515779200359,,0.9419945000001462,52.90515887500078,0.7699332946118436,1.7119277946119897,53.67465516700031,delayed,cd_delayed,0.9430352079943987,52.905256541998824,0.9430352079943987,52.905256541998824,0.40049329199973727,,post_reversal,right,left,52.50505866700405,0.3005474159945152,0,51.84206783300033,53.67465516700031,1.8325873339999816,main,1
10,2,13,mixed01_level2_block13,2,active,shape_present,shape_absent,nknz_wob.png,shape,ambiguous,rare,face_absent,right,top,,0.2495127500005765,53.93671999999788,0.4912144170011743,54.178421582997544,blank,,,,,0.2495127500005765,53.93671999999788,0.4912144170011743,54.178421582997544,0.9501771670038579,54.63738358300179,,0.9495127500005764,54.63738462499896,0.21274648175990393,1.1622592317604803,54.84972162500344,delayed,cd_delayed,1.0801521670000511,54.76735891700082,1.0801521670000511,54.76735891700082,0.4786984169986681,,post_reversal,left,right,54.28892437500326,0.3519410000008065,0,53.67482412500249,54.84972162500344,1.1748975000009523,main,1
11,2,13,mixed01_level2_block13,3,active,shape_present,shape_present,knz_wob.png,shape,meaningful,frequent,face_absent,left,top,,0.24175000000104774,55.10398145799991,0.49146449999534525,55.35369570799958,blank,,,,,0.24175000000104774,55.10398145799991,0.49146449999534525,55.35369570799958,0.9417814999978873,55.804011958003684,,0.9417500000010477,55.8040131250018,0.6606315208056235,1.6023815208066712,56.464797125001496,delayed,cd_delayed,0.977880833997915,55.840111833000265,0.977880833997915,55.840111833000265,0.4164360420036246,,post_reversal,right,left,55.424047583001084,0.3196947919932427,0,54.84984675000305,56.464797125001496,1.6149503749984433,main,1
12,2,13,mixed01_level2_block13,4,active,shape_present,shape_present,knz_wob.png,shape,meaningful,frequent,face_absent,left,top,,0.24979891700058943,56.837145042001794,0.499689791999117,57.08703562500159,deviant,-0.20986326089874147,deviant.wav,0.03102387500257464,56.61837024999841,0.24979891700058943,56.837145042001794,0.499689791999117,57.08703562500159,0.9504163750025327,57.53776187499898,,0.9497989170005894,57.537763291999,0.7334647063906667,1.6832636233912561,58.270886708000035,delayed,cd_delayed,0.9505224579988862,57.537867792001634,0.9505224579988862,57.537867792001634,0.49832620799861616,,post_reversal,right,right,57.039823541999795,0.20239733299968066,1,56.464943375001894,58.270886708000035,1.8059433329981402,main,1
13,2,13,mixed01_level2_block13,5,active,shape_present,shape_present,knz_wob.png,shape,meaningful,frequent,face_absent,left,bottom,,0.24180812499980675,58.629060208004375,0.48321512500115205,58.87046687499969,standard,-0.1981418735498951,std.wav,0.04240729099547025,58.42965895800444,0.24180812499980675,58.629060208004375,0.48321512500115205,58.87046687499969,0.9426243749985588,59.32987600000342,,0.9418081249998067,59.32987750000029,0.8907686390634335,1.8325767640632402,60.22015562500019,delayed,cd_delayed,1.007555083000625,59.394806458003586,1.007555083000625,59.394806458003586,0.439345458005846,,post_reversal,right,left,58.9557395419979,0.32640149999497226,0,58.27104991699889,60.22015562500019,1.949105708001298,main,1
14,2,13,mixed01_level2_block13,6,active,shape_present,shape_present,knz_wob.png,shape,meaningful,frequent,face_absent,left,bottom,,0.249684583999624,60.58699570799945,0.4915186250000261,60.82882929200423,standard,-0.07079642027624389,std.wav,0.16931924999516923,60.50662979199842,0.249684583999624,60.58699570799945,0.4915186250000261,60.82882929200423,0.949944374995539,61.28725462500006,,0.949684583999624,61.2872556250004,0.6624749187099568,1.6121595027095807,61.94961604200216,delayed,cd_delayed,0.9500381670004572,61.287348874997406,0.9500381670004572,61.287348874997406,0.401744000002509,,post_reversal,right,left,60.88588100000197,0.2986095829983242,0,60.22031820799748,61.94961604200216,1.729297834004683,main,1
15,2,13,mixed01_level2_block13,7,active,shape_present,face_present,fpa13.png,face,meaningful,rare,face_absent,right,bottom,,0.2494871669987333,62.32006037500105,0.4912519589997828,62.56182500000432,standard,-0.17469138953568003,std.wav,0.06612066700472496,62.13669354200101,0.2494871669987333,62.32006037500105,0.4912519589997828,62.56182500000432,0.9501776250035618,63.020749875002366,,0.9494871669987333,63.02075095799955,0.49151458266636316,1.4410017496650964,63.51190037500055,none,cd_none,,,,,,,post_reversal,right,right,62.576828707999084,0.2564931670058286,1,61.94977525000286,63.51190037500055,1.5621251249976922,main,1
16,2,13,mixed01_level2_block13,8,active,shape_present,shape_present,knz_bow.png,shape,meaningful,frequent,face_absent,left,top,,0.24199337499885587,63.87038579200453,0.483913374999247,64.11230558300304,standard,-0.07716322128294031,std.wav,0.1638862909967429,63.79227825000271,0.24199337499885587,63.87038579200453,0.483913374999247,64.11230558300304,0.942169207999541,64.57056070800172,,0.9419933749988558,64.57056216699857,0.596495102466678,1.5384884774655339,65.1674906670014,delayed,cd_delayed,0.9422772499965504,64.57066887499968,0.9422772499965504,64.57066887499968,0.44107066699507413,,post_reversal,right,right,64.12989370799914,0.2592132080026204,1,63.512075416998414,65.1674906670014,1.6554152500029886,main,1
17,2,13,mixed01_level2_block13,9,active,shape_present,shape_present,knz_wob.png,shape,meaningful,frequent,face_absent,left,top,,0.24960591700073564,65.53705312500097,0.4912547919957433,65.77869700000156,standard,-0.16667779044440564,std.wav,0.07388883300154703,65.36133108300419,0.24960591700073564,65.53705312500097,0.4912547919957433,65.77869700000156,0.9501977079999051,66.23763950000284,,0.9496059170007356,66.23764054200001,0.6564254817047729,1.6060313987055084,66.89426112500223,delayed,cd_delayed,0.950294499998563,66.2377362920015,0.950294499998563,66.2377362920015,0.4312696670021978,,post_reversal,right,left,65.80673224999919,0.2694189159956295,0,65.16767575000267,66.89426112500223,1.7265853749995586,main,1
18,2,13,mixed01_level2_block13,10,active,shape_present,shape_present,knz_wob.png,shape,meaningful,frequent,face_absent,left,bottom,,0.24208762500347802,67.25405825000053,0.4834414580036537,67.49541166699782,standard,0.19907138457661444,std.wav,0.4397421250032494,67.45171179200406,0.24208762500347802,67.25405825000053,0.4834414580036537,67.49541166699782,0.9426990000065416,67.95466858299915,,0.942087625003478,67.95466975000454,0.23753555781561914,1.179623182819097,68.19197133299895,delayed,cd_delayed,1.0036849160023849,68.0156547919978,1.0036849160023849,68.0156547919978,0.42534895800054073,,post_reversal,right,left,67.59058641699812,0.3362483329983661,0,66.89443837499857,68.19197133299895,1.2975329580003745,main,1
19,2,13,mixed01_level2_block13,11,active,shape_present,shape_present,knz_bow.png,shape,meaningful,frequent,face_absent,left,bottom,,0.24966670799767599,68.56170045799809,0.4918521250001504,68.80388595799741,standard,0.10340095816610362,std.wav,0.34371816700149793,68.65575125000032,0.24966670799767599,68.56170045799809,0.4918521250001504,68.80388595799741,0.9496962080011144,69.2617296669996,,0.9496667079976759,69.26173116700375,0.20717895997851055,1.1568456679761865,69.46983708300104,delayed,cd_delayed,0.9518172919997596,69.26385066700459,0.9518172919997596,69.26385066700459,0.31738558399956673,,post_reversal,right,left,68.94673275000241,0.3847650000025169,0,68.1921325000003,69.46983708300104,1.277704583000741,main,1
20,2,13,mixed01_level2_block13,12,active,shape_present,shape_present,knz_bow.png,shape,meaningful,frequent,face_absent,left,top,,0.24999262499477481,69.83702454200102,0.4918777909988421,70.07890929200221,standard,0.07522428418311311,std.wav,0.31629545799660264,69.90332654200029,0.24999262499477481,69.83702454200102,0.4918777909988421,70.07890929200221,0.9507448749936884,70.53777575000277,,0.9499926249947748,70.5377767500031,0.45077361348116407,1.400766238475939,70.98881437499949,none,cd_none,,,,,,,post_reversal,right,left,70.1676755419976,0.33036250000441214,0,69.47000741700322,70.98881437499949,1.5188069579962757,main,1
21,2,13,mixed01_level2_block13,13,active,shape_present,shape_present,knz_wob.png,shape,meaningful,frequent,face_absent,left,top,,0.24220337500446476,71.34562841700244,0.4919270000027609,71.59535195799981,standard,-0.07916122628280636,std.wav,0.16187425000680378,71.26529866700002,0.24220337500446476,71.34562841700244,0.4919270000027609,71.59535195799981,0.9430517080036225,72.04647566700442,,0.9422033750044647,72.04647679199843,0.3099428261109849,1.2521462011154496,72.35609349999868,delayed,cd_delayed,1.00081695800327,72.10424129199964,1.00081695800327,72.10424129199964,0.4699263750007958,,post_reversal,right,right,71.63459416700061,0.2886872079980094,1,70.98897749999742,72.35609349999868,1.3671160000012605,main,1
22,2,13,mixed01_level2_block13,14,active,shape_present,shape_present,knz_wob.png,shape,meaningful,frequent,face_absent,left,bottom,,0.2499032920022728,72.72866200000135,0.49993395800265716,72.97869208300108,standard,-0.1294350903525598,std.wav,0.11129558300308418,72.5900537080015,0.2499032920022728,72.72866200000135,0.49993395800265716,72.97869208300108,0.9499416670005303,73.42869924999832,,0.9499032920022727,73.42870037499961,0.8057251607260965,1.7556284527283692,74.23448858300253,delayed,cd_delayed,0.9500367920045392,73.42879491700296,0.9500367920045392,73.42879491700296,0.4615548750007292,,post_reversal,right,left,72.96751775000303,0.23857862500153715,0,72.35625037499995,74.23448858300253,1.8782382080025855,main,1
23,2,13,mixed01_level2_block13,15,active,shape_present,face_present,fpa21.png,face,meaningful,rare,face_absent,right,bottom,,0.24982520900084637,74.6036914580036,0.49152762499579694,74.84539424999821,standard,0.03696896867725896,std.wav,0.27766129199881107,74.63152608300152,0.24982520900084637,74.6036914580036,0.49152762499579694,74.84539424999821,0.9508272499952,75.30469175000326,,0.9498252090008463,75.30469283300044,0.32998624505509533,1.2798114540559418,75.63453716700315,none,cd_none,,,,,,,post_reversal,right,right,75.0355179170001,0.4315252079977654,1,74.2346659169998,75.63453716700315,1.3998712500033434,main,1
24,2,13,mixed01_level2_block13,16,active,shape_present,shape_present,knz_bow.png,shape,meaningful,frequent,face_absent,left,top,,0.24996524999733083,76.00363758300227,0.49999804200342624,76.25366966699949,deviant,0.14904116431416736,deviant.wav,0.3898110000009183,76.1434822500014,0.24996524999733083,76.00363758300227,0.49999804200342624,76.25366966699949,0.9503362920004292,76.70400779200281,,0.9499652499973308,76.7040089170041,0.6543499269053172,1.604315176902648,77.35822650000046,delayed,cd_delayed,0.9535459589969832,76.70721741700254,0.9535459589969832,76.70721741700254,0.39111162499466445,,post_reversal,right,left,76.31634275000397,0.31246908400498796,0,75.63470154200331,77.35822650000046,1.7235249579971423,main,1
25,2,13,mixed01_level2_block13,17,active,shape_present,shape_present,knz_bow.png,shape,meaningful,frequent,face_absent,left,top,,0.24950229200476315,77.72840695799823,0.4912277500043274,77.9701317920044,standard,0.19981618903031845,std.wav,0.4408430000039516,77.91974650000338,0.24950229200476315,77.72840695799823,0.4912277500043274,77.9701317920044,0.9497249170017312,78.42862862499896,,0.9495022920047631,78.42862975000025,0.5213235482558627,1.4708258402606258,78.95015116700233,delayed,cd_delayed,0.9498234999991837,78.42872720800369,0.9498234999991837,78.42872720800369,0.36259441600122955,,post_reversal,right,left,78.06642533300328,0.337726791993191,0,77.35837854199781,78.95015116700233,1.5917726250045234,main,1
26,2,13,mixed01_level2_block13,18,active,shape_present,shape_present,knz_wob.png,shape,meaningful,frequent,face_absent,left,bottom,,0.24186016600287985,79.31223999999929,0.49163066600158345,79.56201091699768,standard,0.22820744886415795,std.wav,0.4690205410006456,79.53939995799738,0.24186016600287985,79.31223999999929,0.49163066600158345,79.56201091699768,0.9427087910007685,80.01308791700285,,0.9418601660028798,80.01308887499908,0.7151139305521654,1.6569740965550452,80.72763287500129,delayed,cd_delayed,0.9427951660036342,80.01317462500447,0.9427951660036342,80.01317462500447,0.3891207500055316,,post_reversal,right,left,79.62431720799941,0.3118142499952228,0,78.95031004200428,80.72763287500129,1.7773228329970152,main,1
27,2,13,mixed01_level2_block13,19,active,shape_present,shape_absent,nknz_wob.png,shape,ambiguous,rare,face_absent,right,bottom,,0.24169920799613465,81.08721895800409,0.49143612499756273,81.33695516700391,standard,0.1981245708656943,std.wav,0.4382205419969978,81.28373941699829,0.24169920799613465,81.08721895800409,0.49143612499756273,81.33695516700391,0.942299082998943,81.78781766699831,,0.9416992079961346,81.78781870799867,0.6960300124866473,1.637729220482782,82.48412375000044,delayed,cd_delayed,0.9807264579940238,81.8262462920029,0.9807264579940238,81.8262462920029,0.42015374999755295,,post_reversal,left,right,81.40638587500143,0.3188735000003362,0,80.72777158299868,82.48412375000044,1.7563521670017508,main,1
28,2,13,mixed01_level2_block13,20,active,shape_present,shape_present,knz_wob.png,shape,meaningful,frequent,face_absent,left,bottom,,0.2497371249992284,82.85370937499829,0.49141291699925205,83.09538412500115,standard,0.21091647850936285,std.wav,0.45157195899810176,83.05554266700346,0.2497371249992284,82.85370937499829,0.49141291699925205,83.09538412500115,0.9498702499986393,83.55384091700398,,0.9497371249992284,83.55384195800434,0.5750637324171906,1.524800857416419,84.12927604200377,none,cd_none,,,,,,,post_reversal,right,left,83.0813295830012,0.22734729199873982,0,82.48433099999966,84.12927604200377,1.6449450420041103,main,1
29,2,13,mixed01_level2_block13,21,baseline,shape_present,,,,,baseline,face_absent,,,,,,,,blank,,,,,,,,,,,84.1367126250043,,,1.59899215354086,,,,,,,,,,,,,,,,,84.12944083299953,85.73574958300014,1.6063087500006077,main,1
30,2,13,mixed01_level2_block13,22,baseline,shape_present,,,,,baseline,face_absent,,,,,,,,blank,,,,,,,,,,,85.73890137499984,,,1.5126081617842801,,,,,,,,,,,,,,,,,85.73586779199832,87.25155937499949,1.5156915830011712,main,1
31,2,13,mixed01_level2_block13,23,baseline,shape_present,,,,,baseline,face_absent,,,,,,,,blank,,,,,,,,,,,87.25538716700248,,,1.5575690052602977,,,,,,,,,,,,,,,,,87.25168241700158,88.81300520800141,1.5613227909998386,main,1
32,2,7,mixed02_level2_block07,1,active,shape_absent,shape_absent,nknz_wob.png,shape,ambiguous,frequent,shape_present,left,top,,0.24210933299764292,89.06232187500427,0.4837437919995864,89.30395600000338,blank,,,,,0.24210933299764292,89.06232187500427,0.4837437919995864,89.30395600000338,0.9426387499988778,89.76285091700265,,0.9421093329976429,89.76285220799764,0.3264931532799653,1.2686024862776082,90.0891263750018,delayed,cd_delayed,0.9427389999982552,89.7629508750033,0.9427389999982552,89.7629508750033,0.5266544170008274,,pre_reversal,right,left,89.23656774999836,0.17397524999978486,0,88.81313841699739,90.0891263750018,1.2759879580044071,main,2
33,2,7,mixed02_level2_block07,2,active,shape_absent,shape_absent,nknz_bow.png,shape,ambiguous,frequent,shape_present,left,top,,0.24973079199844506,90.4617365419981,0.49172816699865507,90.70373308299895,standard,-0.06653087915971595,std.wav,0.17420024999591988,90.38620616700064,0.24973079199844506,90.4617365419981,0.49172816699865507,90.70373308299895,0.9504531669954304,91.16245795800205,,0.949730791998445,91.1624594169989,0.3697256507693426,1.3194564427677875,91.53242200000386,delayed,cd_delayed,0.9505575419971137,91.16256233300373,0.9505575419971137,91.16256233300373,0.39511516699712956,,pre_reversal,right,left,90.76774695800123,0.3057115830015391,0,90.0892560420034,91.53242200000386,1.4431659580004634,main,2
34,2,7,mixed02_level2_block07,3,active,shape_absent,shape_absent,nknz_bow.png,shape,ambiguous,frequent,shape_present,left,top,,0.2420516249985667,91.89577850000205,0.48349037500156555,92.1372166670044,standard,0.09024421911220765,std.wav,0.33109179099847097,91.98481750000064,0.2420516249985667,91.89577850000205,0.48349037500156555,92.1372166670044,0.9427967910014559,92.59652274999826,,0.9420516249985667,92.59652387499955,0.7087593760179784,1.650811001016545,93.30476795799768,none,cd_none,,,,,,,pre_reversal,right,left,92.15954116699868,0.2634897500029183,0,91.53259112500382,93.30476795799768,1.772176832993864,main,2
35,2,7,mixed02_level2_block07,4,active,shape_absent,shape_absent,nknz_wob.png,shape,ambiguous,frequent,shape_present,left,top,,0.24974683300388278,93.67041529199923,0.49972908299969276,93.92039679200388,standard,0.09302567676762585,std.wav,0.3341319579994888,93.75479916699987,0.24974683300388278,93.67041529199923,0.49972908299969276,93.92039679200388,0.950450832999195,94.3711180829996,,0.9497468330038827,94.37111912500404,0.600825416433316,1.5505722494371987,94.97149512499891,delayed,cd_delayed,0.9505449580028653,94.37121216700325,0.9505449580028653,94.37121216700325,0.4531019580026623,,pre_reversal,right,left,93.92046966699854,0.24769616699632024,0,93.30493574999855,94.97149512499891,1.6665593750003609,main,2
36,2,7,mixed02_level2_block07,5,active,shape_absent,shape_absent,nknz_bow.png,shape,ambiguous,frequent,shape_present,left,bottom,,0.2424152910025441,95.32917224999983,0.491910958000517,95.57866775000002,deviant,0.14596023227608562,deviant.wav,0.3862477080037934,95.47300420800457,0.2424152910025441,95.32917224999983,0.491910958000517,95.57866775000002,0.943373458001588,96.03012966700044,,0.9424152910025441,96.0301307080008,0.6688377344572385,1.6112530254597826,96.6980364580013,delayed,cd_delayed,0.9956616249983199,96.0824181670032,0.9956616249983199,96.0824181670032,0.4463063340008375,,pre_reversal,right,left,95.63641429199924,0.30693999999493826,0,94.97165029199823,96.6980364580013,1.726386166003067,main,2
37,2,7,mixed02_level2_block07,6,active,shape_absent,shape_absent,nknz_wob.png,shape,ambiguous,frequent,shape_present,left,top,,0.2495716249977704,97.07035562500096,0.49152933299774304,97.31231279200438,standard,0.17514456079817947,std.wav,0.4157882500003325,97.23657179200382,0.2495716249977704,97.07035562500096,0.49152933299774304,97.31231279200438,0.9505467080016388,97.7713292499975,,0.9495716249977704,97.77133033300197,0.644016756142155,1.5935883811399254,98.41487516699999,delayed,cd_delayed,0.9506414999996196,97.77142433299741,0.9506414999996196,97.77142433299741,0.4361139169996022,,pre_reversal,right,left,97.33558441700006,0.2649559580022469,0,96.69820425000216,98.41487516699999,1.7166709169978276,main,2
38,2,7,mixed02_level2_block07,7,active,shape_absent,shape_absent,nknz_bow.png,shape,ambiguous,frequent,shape_present,left,bottom,,0.2501417909952579,98.78707408300397,0.5000864999965415,99.03701875000115,standard,0.027858654894959978,std.wav,0.2682749160012463,98.8052058750036,0.2501417909952579,98.78707408300397,0.5000864999965415,99.03701875000115,0.9509556659977534,99.48788691699883,,0.9501417909952579,99.48788816700107,0.364914643749589,1.3150564347448468,99.85251658299967,delayed,cd_delayed,0.9510643749963492,99.48799600000348,0.9510643749963492,99.48799600000348,0.5028152090017102,,pre_reversal,right,left,98.98544799999945,0.19810737499938114,0,98.41504979199817,99.85251658299967,1.4374667910014978,main,2
39,2,7,mixed02_level2_block07,8,active,shape_absent,face_present,fpa12.png,face,meaningful,rare,shape_present,right,top,,0.24220400000194786,100.21229825000046,0.49197541699686553,100.46206970800267,standard,0.14315781305802938,std.wav,0.3841249999968568,100.35421833299915,0.24220400000194786,100.21229825000046,0.49197541699686553,100.46206970800267,0.943017207995581,100.91311029200006,,0.9422040000019478,100.91311145800137,0.30242916106922346,1.2446331610711714,101.21506025000417,delayed,cd_delayed,1.0645922080002492,101.0346856670003,1.0645922080002492,101.0346856670003,0.46549125000456115,,pre_reversal,left,right,100.56947324999783,0.3568969579937402,0,99.85269304199755,101.21506025000417,1.3623672080066171,main,2
40,2,7,mixed02_level2_block07,9,active,shape_absent,shape_absent,nknz_wob.png,shape,ambiguous,frequent,shape_present,left,top,,0.24205433399765752,101.46209987500333,0.4836297090005246,101.70367495800019,blank,,,,,0.24205433399765752,101.46209987500333,0.4836297090005246,101.70367495800019,0.9429789589994471,102.16302391700447,,0.9420543339976575,102.16302549999818,0.6214152398924265,1.563469573890084,102.78386520800268,delayed,cd_delayed,0.9431103750030161,102.16315525000391,0.9431103750030161,102.16315525000391,0.36821441600477556,,pre_reversal,right,left,101.79525262500101,0.332841625000583,0,101.2152333749982,102.78386520800268,1.5686318330044742,main,2
41,2,7,mixed02_level2_block07,10,active,shape_absent,shape_absent,nknz_bow.png,shape,ambiguous,frequent,shape_present,left,bottom,,0.24949349999951664,103.15339787500125,0.4912464169974555,103.39515033300268,deviant,-0.22734543924313058,deviant.wav,0.013491208999766968,102.91739508300088,0.24949349999951664,103.15339787500125,0.4912464169974555,103.39515033300268,0.9496361249985057,103.8535397500018,,0.9494934999995166,103.85354091699992,0.5698952926775123,1.5193887926770289,104.42400291700324,delayed,cd_delayed,0.9784345840016613,103.88233900000341,0.9784345840016613,103.88233900000341,0.44298512500245124,,pre_reversal,right,left,103.43963500000245,0.2859559589996934,0,102.78402816699963,104.42400291700324,1.6399747500036028,main,2
42,2,7,mixed02_level2_block07,11,active,shape_absent,shape_absent,nknz_wob.png,shape,ambiguous,frequent,shape_present,left,top,,0.2497137919999659,104.79505979199894,0.49186366699723294,105.0372094580016,standard,-0.004052262702318371,std.wav,0.23661879199789837,104.78196462499909,0.2497137919999659,104.79505979199894,0.49186366699723294,105.0372094580016,0.950348499995016,105.49569379199966,,0.9497137919999659,105.49569491700095,0.47638424940661334,1.4260980414065791,105.9724358750027,delayed,cd_delayed,0.9504430419983692,105.49578883300273,0.9504430419983692,105.49578883300273,0.39486979199864436,,pre_reversal,right,left,105.10130737500003,0.3058594579997589,0,104.42417750000459,105.9724358750027,1.5482583749981131,main,2
43,2,7,mixed02_level2_block07,12,active,shape_absent,shape_absent,nknz_wob.png,shape,ambiguous,frequent,shape_present,left,bottom,,0.25022725000599166,106.33698558300239,0.49201108400302473,106.57876925000164,standard,-0.18674807193055162,std.wav,0.05368941699998686,106.14044783300051,0.25022725000599166,106.33698558300239,0.49201108400302473,106.57876925000164,0.9508112500043353,107.03756945799978,,0.9502272500059916,107.03757095800393,0.7203469586186515,1.6705742086246431,107.75828191699838,delayed,cd_delayed,0.9725116250046995,107.05926979200012,0.9725116250046995,107.05926979200012,0.4672821659987676,,pre_reversal,right,left,106.59227683299832,0.2550022089999402,0,105.97259825000219,107.75828191699838,1.7856836669961922,main,2
44,2,7,mixed02_level2_block07,13,active,shape_absent,shape_absent,nknz_bow.png,shape,ambiguous,frequent,shape_present,left,top,,0.24975295799958985,108.12872200000129,0.4996883329949924,108.37865716699889,standard,-0.11595819649186438,std.wav,0.12501554199843667,108.00398441700236,0.24975295799958985,108.12872200000129,0.4996883329949924,108.37865716699889,0.9507032920009806,108.82967129199824,,0.9497529579995898,108.8296723329986,0.7894824915740755,1.7392354495736653,109.6190110000025,delayed,cd_delayed,0.9508037499981583,108.82977212499827,0.9508037499981583,108.82977212499827,0.5019092919974355,,pre_reversal,right,left,108.32818224999937,0.19914150000113295,0,107.75844225000037,109.6190110000025,1.8605687500021304,main,2
45,2,7,mixed02_level2_block07,14,active,shape_absent,face_absent,faa08.png,face,ambiguous,rare,shape_present,right,bottom,,0.2499684169961256,109.98693295800331,0.5000378749973606,110.23700174999976,standard,0.07430053390424862,std.wav,0.31517437499860534,110.05213758299942,0.2499684169961256,109.98693295800331,0.5000378749973606,110.23700174999976,0.9504638750004233,110.68742691700027,,0.9499684169961256,110.6874279170006,0.6779199931660456,1.6278884101621711,111.36515104200225,none,cd_none,,,,,,,pre_reversal,right,right,110.27231191700412,0.2851043330010725,1,109.61918829200295,111.36515104200225,1.7459627499993076,main,2
46,2,7,mixed02_level2_block07,15,active,shape_absent,face_absent,faa23.png,face,ambiguous,rare,shape_present,right,bottom,,0.24981741700321436,111.737043000001,0.4914216250035679,111.97864683299849,standard,0.05619559909170502,std.wav,0.2968925000022864,111.78411733300163,0.24981741700321436,111.737043000001,0.4914216250035679,111.97864683299849,0.9506249170008232,112.43784966700332,,0.9498174170032143,112.43785079199733,0.20484813081463965,1.154665547817854,112.64217091700266,none,cd_none,,,,,,,pre_reversal,right,right,112.08712850000302,0.34984399999666493,1,111.36534358299832,112.64217091700266,1.276827334004338,main,2
47,2,7,mixed02_level2_block07,16,active,shape_absent,face_present,fpa03.png,face,meaningful,rare,shape_present,right,bottom,,0.250007791997632,113.01204433300154,0.4916566249958123,113.25369245799811,standard,0.051363384864185346,std.wav,0.2917591250006808,113.0537947499979,0.250007791997632,113.01204433300154,0.4916566249958123,113.25369245799811,0.9503140419983538,113.71234933300002,,0.950007791997632,113.71235049999814,0.6608639551595362,1.610871747157168,114.37362554200081,delayed,cd_delayed,0.9504098749966943,113.71244554199802,0.9504098749966943,113.71244554199802,0.38077762499597156,,pre_reversal,left,right,113.3319609579994,0.3196244580030907,0,112.64234029200452,114.37362554200081,1.73128524999629,main,2
48,2,7,mixed02_level2_block07,17,active,shape_absent,shape_absent,nknz_wob.png,shape,ambiguous,frequent,shape_present,left,bottom,,0.2495275830005994,114.74506420800026,0.4911360410042107,114.98667237500194,standard,-0.04528628600204418,std.wav,0.1949248750024708,114.69046112499927,0.2495275830005994,114.74506420800026,0.4911360410042107,114.98667237500194,0.9504172079978161,115.44595275000029,,0.9495275830005994,115.44595387500158,0.8753895947224604,1.8249171777230597,116.32132908300264,delayed,cd_delayed,0.950511415998335,115.44604754199827,0.950511415998335,115.44604754199827,0.5142964580008993,,pre_reversal,right,left,114.93203324999922,0.1866873749968363,0,114.37377704199753,116.32132908300264,1.9475520410051104,main,2
49,2,7,mixed02_level2_block07,18,active,shape_absent,shape_absent,nknz_bow.png,shape,ambiguous,frequent,shape_present,left,top,,0.24970316699909745,116.68695362500148,0.491442750004353,116.92869300000166,standard,0.11271144920196247,std.wav,0.35297079200245207,116.7902204580023,0.24970316699909745,116.68695362500148,0.491442750004353,116.92869300000166,0.9497988340008305,117.38704870799847,,0.9497031669990974,117.38704983299976,0.8305991944685753,1.7803023614676727,118.21757462499954,none,cd_none,,,,,,,pre_reversal,right,left,116.9460717500042,0.2588429579991498,0,116.32149433300219,118.21757462499954,1.8960802919973503,main,2
50,2,7,mixed02_level2_block07,19,active,shape_absent,shape_absent,nknz_bow.png,shape,ambiguous,frequent,shape_present,left,bottom,,0.24956995899992762,118.58670879199781,0.491202749995864,118.82834150000417,standard,0.08544561156240243,std.wav,0.32641729199531255,118.66355554199981,0.24956995899992762,118.58670879199781,0.491202749995864,118.82834150000417,0.9500068339984864,119.28714495799795,,0.9495699589999276,119.28714595799829,0.7683160037635031,1.7178859627634306,120.05554125000344,delayed,cd_delayed,0.9831137919973116,119.32025216700276,0.9831137919973116,119.32025216700276,0.4196009579973179,,pre_reversal,right,left,118.90090545800194,0.3139428750000661,0,118.21774995799933,120.05554125000344,1.8377912920041126,main,2
51,2,7,mixed02_level2_block07,20,active,shape_absent,shape_absent,nknz_wob.png,shape,ambiguous,frequent,shape_present,left,bottom,,0.2417741660028696,120.42066283299937,0.4913640829981887,120.67025270799786,standard,0.23305925214381418,std.wav,0.4741219999996247,120.65300991699769,0.2417741660028696,120.42066283299937,0.4913640829981887,120.67025270799786,0.9418513330019778,121.12073895800131,,0.9417741660028696,121.1207400830026,0.33268667669924057,1.2744608427021102,121.45358012500219,delayed,cd_delayed,0.9419467080006143,121.12083466700278,0.9419467080006143,121.12083466700278,0.3692716669975198,,pre_reversal,right,left,120.75184820799768,0.3309008750002249,0,120.05571483300446,121.45358012500219,1.3978652919977321,main,2
52,2,7,mixed02_level2_block07,21,baseline,shape_absent,,,,,baseline,shape_present,,,,,,,,blank,,,,,,,,,,,121.46169779200136,,,1.1165253270926416,,,,,,,,,,,,,,,,,121.45373191699764,122.57827795800404,1.124546041006397,main,2
53,2,7,mixed02_level2_block07,22,baseline,shape_absent,,,,,baseline,shape_present,,,,,,,,blank,,,,,,,,,,,122.58669087500311,,,1.1544355433309916,,,,,,,,,,,,,,,,,122.57837591700081,123.741139208003,1.162763291002193,main,2
54,2,7,mixed02_level2_block07,23,baseline,shape_absent,,,,,baseline,shape_present,,,,,,,,blank,,,,,,,,,,,123.74546170800022,,,1.258349790352885,,,,,,,,,,,,,,,,,123.74123466700257,125.00382925000304,1.262594583000464,main,2
55,2,15,mixed03_level2_block15,1,active,face_present,face_present,fpa23.png,face,meaningful,frequent,face_absent,left,top,,0.24946700000145938,132.1866870829981,0.49134108400176046,132.4285607080019,deviant,-0.13981857587430613,deviant.wav,0.10108916700119153,132.0383087500013,0.24946700000145938,132.1866870829981,0.49134108400176046,132.4285607080019,0.9499046249984531,132.8871234170001,,0.9494670000014593,132.88712441700045,0.3436296740629393,1.2930966740643988,133.23098220799875,delayed,cd_delayed,1.0643340840033488,133.0015535420025,1.0643340840033488,133.0015535420025,0.3399365420045797,,post_reversal,right,left,132.66197941700375,0.4749305419973098,0,131.81902458299737,133.23098220799875,1.411957625001378,main,3
56,2,15,mixed03_level2_block15,2,active,face_present,face_present,fpa18.png,face,meaningful,frequent,face_absent,left,top,,0.24997958399762865,133.6036612079988,0.4917239589995006,133.84540491700318,deviant,-0.1584102458095189,deviant.wav,0.08255587500025285,133.4362367499998,0.24997958399762865,133.6036612079988,0.4917239589995006,133.84540491700318,0.9509422089977306,134.30462270799762,,0.9499795839976286,134.3046238329989,0.3853834102887608,1.3353629942863894,134.6891886250014,delayed,cd_delayed,0.9510417499986943,134.30472316699888,0.9510417499986943,134.30472316699888,0.529110291005054,,post_reversal,right,left,133.77587295800186,0.1719518749960116,0,133.2311402080013,134.6891886250014,1.4580484170001,main,3
57,2,15,mixed03_level2_block15,3,active,face_present,shape_absent,nknz_bow.png,shape,ambiguous,rare,face_absent,right,top,,0.25026212499506073,135.05364479200216,0.4916505419969326,135.29503304199898,standard,0.11738578258356219,std.wav,0.35850049999862676,135.16188270800194,0.25026212499506073,135.05364479200216,0.4916505419969326,135.29503304199898,0.9503863749996526,135.7537682500042,,0.9502621249950607,135.75376941700233,0.4180364421716622,1.368298567166723,136.171707583002,delayed,cd_delayed,0.9504747499959194,135.75385675000143,0.9504747499959194,135.75385675000143,0.43516920800175285,,post_reversal,left,right,135.31896425000014,0.26504341699910583,0,134.6893489580034,136.171707583002,1.4823586249985965,main,3
58,2,15,mixed03_level2_block15,4,active,face_present,shape_absent,nknz_bow.png,shape,ambiguous,rare,face_absent,right,top,,0.2496866660003434,136.5616959580002,0.4914197499965667,136.8034290420037,standard,-0.19491623827430976,std.wav,0.04566925000108313,136.35767883300286,0.2496866660003434,136.5616959580002,0.4914197499965667,136.8034290420037,0.9501677910011495,137.26217700000416,,0.9496866660003433,137.2621784580042,0.7181539376250077,1.667840603625351,137.98033491700335,delayed,cd_delayed,0.9502736249996815,137.26228270799766,0.9502736249996815,137.26228270799766,0.5485861670022132,,post_reversal,left,right,136.71398066700203,0.1520007919971249,0,136.17187325000123,137.98033491700335,1.8084616670021205,main,3
59,2,15,mixed03_level2_block15,5,active,face_present,face_present,fpa15.png,face,meaningful,frequent,face_absent,left,top,,0.24168495900084963,138.36225191700214,0.4913848340002005,138.6119520420034,standard,-0.051076354279812636,std.wav,0.18987500000366708,138.31044179200399,0.24168495900084963,138.36225191700214,0.4913848340002005,138.6119520420034,0.9423569999999017,139.06292304200178,,0.9416849590008496,139.06292404200212,0.7132243604623407,1.6549093194631903,139.77569491699978,delayed,cd_delayed,0.9424497500003781,139.0630160830042,0.9424497500003781,139.0630160830042,0.43026808300055563,,post_reversal,right,left,138.63301604200387,0.27049670799897285,0,137.98049708300096,139.77569491699978,1.7951978339988273,main,3
60,2,15,mixed03_level2_block15,6,active,face_present,face_present,fpa24.png,face,meaningful,frequent,face_absent,left,bottom,,0.24930945799860638,140.03668341699813,0.49136383299628505,140.27873741700023,blank,,,,,0.24930945799860638,140.03668341699813,0.49136383299628505,140.27873741700023,0.9501064169962774,140.73747900000308,,0.9493094579986063,140.73748000000342,0.2714495455042703,1.2207590035028766,141.00881562499853,delayed,cd_delayed,1.0514578750007786,140.83883087499999,1.0514578750007786,140.83883087499999,0.4682461670017801,,post_reversal,right,left,140.37088170800416,0.3339022500003921,0,139.7758528330014,141.00881562499853,1.2329627919971244,main,3
61,2,15,mixed03_level2_block15,7,active,face_present,shape_present,knz_wob.png,shape,meaningful,rare,face_absent,right,bottom,,0.24210941600176739,141.38747841700388,0.4915632080010255,141.636932333,standard,0.14818146863719694,std.wav,0.38915845800511306,141.53452675000153,0.24210941600176739,141.38747841700388,0.4915632080010255,141.636932333,0.9423539999988861,142.08772175000195,,0.9421094160017673,142.08772270799818,0.6142385512379547,1.556347967239722,142.70222666700283,delayed,cd_delayed,0.9445088330030558,142.08987708300265,0.9445088330030558,142.08987708300265,0.42327250000380445,,post_reversal,right,right,141.6668879170029,0.27912691699748393,1,141.0089494999993,142.70222666700283,1.6932771670035436,main,3
62,2,15,mixed03_level2_block15,8,active,face_present,face_present,fpa06.png,face,meaningful,frequent,face_absent,left,bottom,,0.24950787499983562,143.0950494580029,0.491224790996057,143.33676558300067,standard,0.1822932349388357,std.wav,0.4231182909934432,143.26865870800248,0.24950787499983562,143.0950494580029,0.491224790996057,143.33676558300067,0.9501378329950967,143.79567795799812,,0.9495078749998356,143.7956790829994,0.8000031456087675,1.749511020608603,144.59559320800327,delayed,cd_delayed,0.9502383329963777,143.7957789170032,0.9502383329963777,143.7957789170032,0.4382409999961965,,post_reversal,right,left,143.3578130829992,0.2624894580003456,0,142.70239020800364,144.59559320800327,1.8932029999996303,main,3
63,2,15,mixed03_level2_block15,9,active,face_present,face_present,fpa13.png,face,meaningful,frequent,face_absent,left,top,,0.2502207500001532,144.85360937500081,0.4917237500048941,145.09511141700204,blank,,,,,0.2502207500001532,144.85360937500081,0.4917237500048941,145.09511141700204,0.9506977499986533,145.55408437499864,,0.9502207500001532,145.5540854580031,0.5326065616893666,1.4828273116895199,146.08711287500046,delayed,cd_delayed,0.950796042001457,145.5541830000002,0.950796042001457,145.5541830000002,0.4457773339963751,,post_reversal,right,left,145.10865799999738,0.25479795800492866,0,144.59575320799922,146.08711287500046,1.491359667001234,main,3
64,2,15,mixed03_level2_block15,10,active,face_present,shape_present,knz_bow.png,shape,meaningful,rare,face_absent,right,bottom,,0.24166208399401512,146.47052804200212,0.49148799999966286,146.7203537500027,standard,0.0033833960708824495,std.wav,0.24383758399926592,146.47270233299787,0.24166208399401512,146.47052804200212,0.49148799999966286,146.7203537500027,0.9422679169947514,147.17113300000346,,0.9416620839940151,147.17113412499748,0.8148036744170193,1.7564657584110344,147.98534658300196,delayed,cd_delayed,1.0088359590008622,147.23770108300232,1.0088359590008622,147.23770108300232,0.36817350000637816,,post_reversal,right,right,146.86985925000045,0.3990003750004689,1,146.08722950000083,147.98534658300196,1.8981170830011251,main,3
65,2,15,mixed03_level2_block15,11,active,face_present,face_present,fpa06.png,face,meaningful,frequent,face_absent,left,top,,0.24950329199782573,148.3783705829992,0.49146316700353054,148.62033012499887,standard,0.0834934800995904,std.wav,0.32422670900268713,148.45309300000372,0.24950329199782573,148.3783705829992,0.49146316700353054,148.62033012499887,0.9496056249990943,149.0784720829979,,0.9495032919978257,149.07847329200013,0.20602694096771515,1.1555302329655408,149.28445304200432,delayed,cd_delayed,0.9497085839975625,149.07857579200208,0.9497085839975625,149.07857579200208,0.47407462499541,,post_reversal,right,left,148.6047982079981,0.22613066700432682,0,147.98549870800343,149.28445304200432,1.2989543340008822,main,3
66,2,15,mixed03_level2_block15,12,active,face_present,face_present,fpa26.png,face,meaningful,frequent,face_absent,left,top,,0.24192216700612335,149.6706362920013,0.49163899999985006,149.92035141700035,standard,0.037150389855435006,std.wav,0.2772234590011067,149.7059351249991,0.24192216700612335,149.6706362920013,0.49163899999985006,149.92035141700035,0.9421486249993904,150.37086004199955,,0.9419221670061233,150.3708610419999,0.46406289953181157,1.405985066537935,150.835495542,none,cd_none,,,,,,,post_reversal,right,left,149.8986504170025,0.22773904199857498,0,149.28465212500305,150.835495542,1.5508434169969405,main,3
67,2,15,mixed03_level2_block15,13,active,face_present,face_present,fpa24.png,face,meaningful,frequent,face_absent,left,bottom,,0.24195299999701092,151.22064312500152,0.4834472089933115,151.46213670800353,standard,0.05113531212697814,std.wav,0.2920544169974164,151.2707435830016,0.24195299999701092,151.22064312500152,0.4834472089933115,151.46213670800353,0.9423641670000507,151.9210534579979,,0.9419529999970109,151.92105450000236,0.626078102054036,1.568031102051047,152.54749737500242,none,cd_none,,,,,,,post_reversal,right,left,151.51271120800084,0.2917758749972563,0,150.8356611249983,152.54749737500242,1.7118362500041258,main,3
68,2,15,mixed03_level2_block15,14,active,face_present,face_present,fpa01.png,face,meaningful,frequent,face_absent,left,bottom,,0.24173758400138468,152.92898108300142,0.4913627920032013,153.1786060000013,standard,0.015318626486825193,std.wav,0.2556789590016706,152.94292204199883,0.24173758400138468,152.92898108300142,0.4913627920032013,153.1786060000013,0.9420603340040543,153.62930370800314,,0.9417375840013846,153.62930508299905,0.3603926850348096,1.3021302690361942,153.98998312500044,none,cd_none,,,,,,,post_reversal,right,left,153.14947629199742,0.22023145799903432,0,152.5476756670032,153.98998312500044,1.4423074579972308,main,3
69,2,15,mixed03_level2_block15,15,active,face_present,face_present,fpa21.png,face,meaningful,frequent,face_absent,left,bottom,,0.24995862499781651,154.37864249999984,0.49997433299722616,154.62865800000145,standard,0.15404058001915832,std.wav,0.39474766700004693,154.5234307080027,0.24995862499781651,154.37864249999984,0.49997433299722616,154.62865800000145,0.9509834999989835,155.07966650000162,,0.9499586249978165,155.0796675419988,0.5844298645364928,1.5343884895343094,155.66391570799897,delayed,cd_delayed,0.9510743330029072,155.07975762500428,0.9510743330029072,155.07975762500428,0.3855562500029919,,post_reversal,right,left,154.69446154199977,0.31555945800209884,0,153.99013625000225,155.66391570799897,1.6737794579967158,main,3
70,2,15,mixed03_level2_block15,16,active,face_present,face_present,fpa05.png,face,meaningful,frequent,face_absent,left,bottom,,0.2494976250018226,156.05336945800082,0.49162695800623624,156.2954984579992,standard,-0.0749651946518928,std.wav,0.16507979200105183,155.96895091699844,0.2494976250018226,156.05336945800082,0.49162695800623624,156.2954984579992,0.95040004200564,156.75427045799734,,0.9494976250018226,156.75427158299863,0.4391215555346142,1.3886191805364367,157.1931060420029,delayed,cd_delayed,0.9505186250025872,156.75438962499902,0.9505186250025872,156.75438962499902,0.4485907920025056,,post_reversal,right,left,156.3060981669987,0.252430207998259,0,155.66407033299765,157.1931060420029,1.5290357090052566,main,3
71,2,15,mixed03_level2_block15,17,active,face_present,face_present,fpa20.png,face,meaningful,frequent,face_absent,left,top,,0.24174991699692328,157.5789484170018,0.49150120800186414,157.8287000420023,standard,0.0436509889824242,std.wav,0.2846875830000499,157.62188520799828,0.24174991699692328,157.5789484170018,0.49150120800186414,157.8287000420023,0.9421290000027511,158.27932629200222,,0.9417499169969232,158.27932729200256,0.3641449374836836,1.3058948544806068,158.6435243329979,delayed,cd_delayed,0.9422350419990835,158.27943262500048,0.9422350419990835,158.27943262500048,0.4011180419984157,,post_reversal,right,left,157.87860162500147,0.2993670830037445,0,157.1933227499976,158.6435243329979,1.4502015830003074,main,3
72,2,15,mixed03_level2_block15,18,active,face_present,face_present,fpa08.png,face,meaningful,frequent,face_absent,left,bottom,,0.24999349999416154,159.03702545799752,0.49194591699779266,159.27898237499903,standard,-0.23110848431065956,std.wav,0.00929695899685612,158.7963286669983,0.24999349999416154,159.03702545799752,0.49194591699779266,159.27898237499903,0.9503423339992878,159.7373735420042,,0.9499934999941615,159.73737454200455,0.6493159339955715,1.599309433989733,160.38710291700409,none,cd_none,,,,,,,post_reversal,right,left,159.2447056250021,0.20740025000122841,0,158.64368304199888,160.38710291700409,1.743419875005202,main,3
73,2,15,mixed03_level2_block15,19,active,face_present,face_present,fpa01.png,face,meaningful,frequent,face_absent,left,bottom,,0.24965158300619805,160.77868045800278,0.4913282500056084,161.02035683300346,standard,0.1273614144291108,std.wav,0.36782154100365005,160.89684970799863,0.24965158300619805,160.77868045800278,0.4913282500056084,161.02035683300346,0.9500897500038263,161.47911800000293,,0.949651583006198,161.47911945800297,0.5082783634373899,1.457929946443588,161.9870500830002,delayed,cd_delayed,0.972860166002647,161.50188858299953,0.972860166002647,161.50188858299953,0.4148350000032224,,post_reversal,right,left,161.08729820800363,0.3083735829932266,0,160.38726754199888,161.9870500830002,1.599782541001332,main,3
74,2,15,mixed03_level2_block15,20,active,face_present,face_present,fpa04.png,face,meaningful,frequent,face_absent,left,top,,0.2498315829943749,162.3785705420014,0.49999312499858206,162.6287317919996,standard,0.15935916456597155,std.wav,0.39957870799844386,162.52831637499912,0.2498315829943749,162.3785705420014,0.49999312499858206,162.6287317919996,0.9503459999978077,163.07908341700386,,0.9498315829943749,163.07908450000104,0.7071357338324682,1.656967316826843,163.78650245800236,delayed,cd_delayed,0.9504546249954728,163.07919250000123,0.9504546249954728,163.07919250000123,0.4759908749983879,,post_reversal,right,left,162.6035176669975,0.22463216700271005,0,161.98722100000305,163.78650245800236,1.7992814579993137,main,3
75,2,15,mixed03_level2_block15,21,baseline,face_present,,,,,baseline,face_absent,,,,,,,,blank,,,,,,,,,,,163.79519854200043,,,0.9232156424184994,,,,,,,,,,,,,,,,,163.78667033300007,164.71846245800407,0.9317921250039944,main,3
76,2,15,mixed03_level2_block15,22,baseline,face_present,,,,,baseline,face_absent,,,,,,,,blank,,,,,,,,,,,164.71999425000104,,,1.3229287799612346,,,,,,,,,,,,,,,,,164.7185762500012,166.0429842500016,1.3244080000004033,main,3
77,2,15,mixed03_level2_block15,23,baseline,face_present,,,,,baseline,face_absent,,,,,,,,blank,,,,,,,,,,,166.04601562499738,,,1.3669080240425184,,,,,,,,,,,,,,,,,166.04306925000128,167.412973874998,1.3699046249967068,main,3
78,1,4,mixed04_level1_block04,1,active,shape_present,face_absent,faa19.png,face,ambiguous,rare,shape_absent,left,bottom,,0.2497177500044927,181.77861470800417,0.49140579200320644,182.02030037499935,standard,0.11013562440519592,std.wav,0.3510418750011013,181.87993587500387,0.2497177500044927,181.77861470800417,0.49140579200320644,182.02030037499935,0.9500425830046879,182.47893683300208,,0.9497177500044927,182.47893829199893,0.5137111052516639,1.4634288552561565,182.99282533299993,immediate,cd_immediate,0.5428991250009858,182.07179383299808,0.5428991250009858,182.07179383299808,0.00039283299702219665,0.00039283299702219665,,left,left,182.071687458003,0.2927885419994709,1,181.38655149999977,182.99282533299993,1.6062738330001594,main,4
79,1,4,mixed04_level1_block04,2,active,shape_present,face_absent,faa11.png,face,ambiguous,rare,shape_absent,left,bottom,,0.24185737499647075,183.37883933300327,0.49164879199815914,183.6286301250002,standard,0.21726872361358524,std.wav,0.458201374996861,183.59518258299795,0.24185737499647075,183.37883933300327,0.49164879199815914,183.6286301250002,0.9424006669942173,184.0793814580029,,0.9418573749964707,184.07938250000007,0.5816531412235839,1.5235105162200546,184.66112891700323,immediate,cd_immediate,0.5376491249990067,183.67463054200198,0.5376491249990067,183.67463054200198,0.0003651250008260831,0.0003651250008260831,,left,left,183.6745448330039,0.2954266250017099,1,182.9929817500015,184.66112891700323,1.6681471670017345,main,4
80,1,4,mixed04_level1_block04,3,active,shape_present,face_present,fpa16.png,face,meaningful,rare,shape_absent,left,top,,0.24207675000070594,185.04590137500054,0.49147370800346835,185.29529804200138,standard,0.21447079604333352,std.wav,0.45523037500242935,185.25905358300224,0.24207675000070594,185.04590137500054,0.49147370800346835,185.29529804200138,0.9429249580061878,185.74674845799746,,0.9420767500007059,185.7467494579978,0.3051299399088743,1.2472066899095802,186.05122454200318,immediate,cd_immediate,0.5018647080069059,185.3056880830045,0.5018647080069059,185.3056880830045,0.00039287500112550333,0.00039287500112550333,,left,left,185.3056102499977,0.2593950830050744,1,184.6613005420004,186.05122454200318,1.389924000002793,main,4
81,1,4,mixed04_level1_block04,4,active,shape_present,shape_present,knz_wob.png,shape,meaningful,frequent,shape_absent,right,top,,0.24166254099691287,186.4370191670023,0.48315087499941,186.67850754199753,standard,-0.015141135606477618,std.wav,0.2255157909967238,186.42087195799832,0.24166254099691287,186.4370191670023,0.48315087499941,186.67850754199753,0.9418459579974297,187.1372016250025,,0.9416625409969128,187.13720275000378,0.4391323870790098,1.3807949280759226,187.57681266700092,immediate,cd_immediate,0.5273196659982204,186.7226755829979,0.5273196659982204,186.7226755829979,0.00036791599995922297,0.00036791599995922297,,right,right,186.72259220800333,0.28528920900134835,1,186.051389207998,187.57681266700092,1.5254234590029228,main,4
82,1,4,mixed04_level1_block04,5,active,shape_present,shape_present,knz_wob.png,shape,meaningful,frequent,shape_absent,right,top,,0.24967150000156835,187.97000191699772,0.49184283400245477,188.2121727920021,standard,-0.221676858630263,std.wav,0.018593792003230192,187.73892333300319,0.24967150000156835,187.97000191699772,0.49184283400245477,188.2121727920021,0.9497549170046113,188.67008395800076,,0.9496715000015683,188.6700849580011,0.8519551258462454,1.8016266258478137,189.5229371250025,none,cd_none,,,,,,,,right,left,187.9700767079994,-0.02795166600117227,0,187.57698354199965,189.5229371250025,1.9459535830028472,main,4
83,1,4,mixed04_level1_block04,6,active,shape_present,shape_present,knz_wob.png,shape,meaningful,frequent,shape_absent,right,top,,0.24175333300081547,189.9038717500007,0.49153875000047265,190.15366220800206,deviant,-0.04974045854577697,deviant.wav,0.19072070800029906,189.85283925000113,0.24175333300081547,189.9038717500007,0.49153875000047265,190.15366220800206,0.942044707997411,190.6041620420001,,0.9417533330008154,190.60416308300046,0.40154391462491834,1.3432972476257339,191.00590812500013,immediate,cd_immediate,0.5084304170013638,190.17054820799967,0.5084304170013638,190.17054820799967,0.0003974170031142421,0.0003974170031142421,,right,right,190.170458917004,0.2662796669974341,1,189.5231175000008,191.00590812500013,1.4827906249993248,main,4
84,1,4,mixed04_level1_block04,7,active,shape_present,shape_present,knz_wob.png,shape,meaningful,frequent,shape_absent,right,top,,0.24186054199526552,191.25348654200207,0.49203533299441915,191.5036608329974,blank,,,,,0.24186054199526552,191.25348654200207,0.49203533299441915,191.5036608329974,0.9429040830000304,191.95452912500332,,0.9418605419952655,191.9545302080005,0.6244544214811046,1.56631496347637,192.57879245799995,none,cd_none,,,,,,,,right,right,191.5713585420017,0.3175809160020435,1,191.0060747919997,192.57879245799995,1.5727176660002442,main,4
85,1,4,mixed04_level1_block04,8,active,shape_present,shape_present,knz_bow.png,shape,meaningful,frequent,shape_absent,right,bottom,,0.24170375000539934,192.828899250002,0.4833922079997137,193.07058745800168,blank,,,,,0.24170375000539934,192.828899250002,0.4833922079997137,193.07058745800168,0.9421410409995588,193.52933562500402,,0.9417037500053993,193.5293367080012,0.22250299316206973,1.164206743167469,193.75224033300037,immediate,cd_immediate,0.5472409159992822,193.1344355830006,0.5472409159992822,193.1344355830006,0.0003701659952639602,0.0003701659952639602,,right,right,193.13433375000022,0.30516699999861885,1,192.57891712499986,193.75224033300037,1.173323208000511,main,4
86,1,4,mixed04_level1_block04,9,active,shape_present,face_present,fpa25.png,face,meaningful,rare,shape_absent,left,bottom,,0.24194887500198092,194.1373021670006,0.48308395800268045,194.37843641699874,deviant,0.10801733921132078,deviant.wav,0.3488203750021057,194.24417208300292,0.24194887500198092,194.1373021670006,0.48308395800268045,194.37843641699874,0.9423586670018267,194.8377105000036,,0.9419488750019809,194.83771150000393,0.5421798068916603,1.4841286818936412,195.38042262499948,none,cd_none,,,,,,,,left,left,194.40730933300074,0.26972741699864855,1,193.75238374999753,195.38042262499948,1.6280388750019483,main,4
87,1,4,mixed04_level1_block04,10,active,shape_present,shape_present,knz_bow.png,shape,meaningful,frequent,shape_absent,right,top,,0.2498127079961705,195.7703287500044,0.49162320799950976,196.012138625003,standard,0.21050662919429763,std.wav,0.4508810409970465,195.97139612500177,0.2498127079961705,195.7703287500044,0.49162320799950976,196.012138625003,0.9501709999967716,196.47068570800184,,0.9498127079961705,196.47068712500186,0.25389818209233306,1.2037108900885034,196.7247478749996,immediate,cd_immediate,0.5977091659951839,196.11822412499896,0.5977091659951839,196.11822412499896,0.0003502909967210144,0.0003502909967210144,,right,right,196.1181464580004,0.34754616700229235,1,195.38058504200308,196.7247478749996,1.344162832996517,main,4
88,1,4,mixed04_level1_block04,11,active,shape_present,shape_present,knz_wob.png,shape,meaningful,frequent,shape_absent,right,top,,0.24190170799556654,197.10385970800417,0.4833576249948237,197.34531562500342,standard,-0.1934024315212617,std.wav,0.047422374998859596,196.9093797500027,0.24190170799556654,197.10385970800417,0.4833576249948237,197.34531562500342,0.9421932909972384,197.804150750002,,0.9419017079955665,197.80415220800205,0.4288120609226136,1.37071376891818,198.23364754200156,immediate,cd_immediate,0.5994455409963848,197.46140274999925,0.5994455409963848,197.46140274999925,0.00040841599548002705,0.00040841599548002705,,right,right,197.46131337500265,0.35713541700533824,1,196.72490920800192,198.23364754200156,1.508738333999645,main,4
89,1,4,mixed04_level1_block04,12,active,shape_present,shape_present,knz_bow.png,shape,meaningful,frequent,shape_absent,right,top,,0.2423626250019879,198.61235308300093,0.4919660000014119,198.86195600000065,standard,0.08368054135713882,std.wav,0.32447379200311843,198.69446312500077,0.2423626250019879,198.61235308300093,0.4919660000014119,198.86195600000065,0.9426368330023251,199.31262637500186,,0.9423626250019879,199.3126278330019,0.26775805655849944,1.2101206815604872,199.58068012500007,immediate,cd_immediate,0.5632321670054807,198.93322154199996,0.5632321670054807,198.93322154199996,0.00034704200515989214,0.00034704200515989214,,right,right,198.93314441700204,0.32052249999833293,1,198.23380037499737,199.58068012500007,1.3468797500026994,main,4
90,1,4,mixed04_level1_block04,13,active,shape_present,shape_present,knz_wob.png,shape,meaningful,frequent,shape_absent,right,top,,0.24215199999889592,199.96252891699987,0.48351429199829,200.20389045800403,standard,0.17589366780803178,std.wav,0.4167306669987738,200.13710645800165,0.24215199999889592,199.96252891699987,0.48351429199829,200.20389045800403,0.9427235420007491,200.66309916700266,,0.9421519999988959,200.66310033300397,0.5935291710518922,1.535681171050788,201.2562012499984,immediate,cd_immediate,0.5988227920024656,200.31919929200376,0.5988227920024656,200.31919929200376,0.0003602090000640601,0.0003602090000640601,,right,right,200.3191183750023,0.3563105830035056,1,199.58084641700407,201.2562012499984,1.6753548329943442,main,4
91,1,4,mixed04_level1_block04,14,active,shape_present,shape_present,knz_bow.png,shape,meaningful,frequent,shape_absent,right,top,,0.24190562500007218,201.63722562500334,0.4836094159982167,201.87892883300083,standard,-0.02655593796687883,std.wav,0.2143559579999419,201.6096752079975,0.24190562500007218,201.63722562500334,0.4836094159982167,201.87892883300083,0.9424211660007131,202.33774020800047,,0.9419056250000721,202.33774133300176,0.5226432376828778,1.46454886268295,202.85987091700372,immediate,cd_immediate,0.5568284159962786,201.9521474170033,0.5568284159962786,201.9521474170033,0.0003864999962388538,0.0003864999962388538,,right,right,201.9520564170016,0.3145362909999676,1,201.2563714170028,202.85987091700372,1.6034995000009076,main,4
92,1,4,mixed04_level1_block04,15,active,shape_present,shape_present,knz_wob.png,shape,meaningful,frequent,shape_absent,right,bottom,,0.24955112500174437,203.2533767920031,0.49147262499900535,203.49529737500416,standard,-0.22964424158147997,std.wav,0.011311708003631793,203.0151359579977,0.24955112500174437,203.2533767920031,0.49147262499900535,203.49529737500416,0.9505708750002668,203.9543951250016,,0.9495511250017443,203.95439612500195,0.6967680728126768,1.6463191978144212,204.65084970799944,none,cd_none,,,,,,,,right,right,203.46629054200457,0.2126032500018482,1,202.86003987499862,204.65084970799944,1.7908098330008215,main,4
93,1,4,mixed04_level1_block04,16,active,shape_present,shape_present,knz_wob.png,shape,meaningful,frequent,shape_absent,right,bottom,,0.24975445800373564,205.03691770799924,0.49144395800249185,205.2786063329986,standard,0.04172237792061845,std.wav,0.2819623750037863,205.06912466700305,0.24975445800373564,205.03691770799924,0.49144395800249185,205.2786063329986,0.9499488750007004,205.73711162499967,,0.9497544580037356,205.73711320800066,0.6175841628011635,1.567338620804899,206.35478216699994,immediate,cd_immediate,0.46786120800243225,205.25502354199853,0.46786120800243225,205.25502354199853,0.0003820830024778843,0.0003820830024778843,,right,left,205.2549450000006,0.21772466699621873,0,204.65104083299957,206.35478216699994,1.7037413340003695,main,4
94,1,4,mixed04_level1_block04,17,active,shape_present,shape_present,knz_bow.png,shape,meaningful,frequent,shape_absent,right,top,,0.24983420799981104,206.74529704199813,0.491271124999912,206.98673308300204,standard,-0.1552945034219753,std.wav,0.0857601249954314,206.58122212500166,0.24983420799981104,206.74529704199813,0.491271124999912,206.98673308300204,0.950637750000169,207.44609891700384,,0.949834207999811,207.4460999580042,0.5636385432879717,1.5134727512877828,208.0096807919981,immediate,cd_immediate,0.30300016699766275,206.7984614579982,0.30300016699766275,206.7984614579982,0.00039479199767811224,0.00039479199767811224,,right,right,206.7983552500009,0.05277116700017359,1,206.35497662499984,208.0096807919981,1.6547041669982718,main,4
95,1,4,mixed04_level1_block04,18,active,shape_present,shape_present,knz_wob.png,shape,meaningful,frequent,shape_absent,right,bottom,,0.24988179199863225,208.4035406250041,0.4999954590020934,208.65365404199838,standard,0.18336950423214127,std.wav,0.424061834004533,208.57772004199796,0.24988179199863225,208.4035406250041,0.4999954590020934,208.65365404199838,0.9500088749991846,209.10366629200144,,0.9498817919986322,209.1036673330018,0.3244304349264758,1.274312226925108,209.4283257920033,immediate,cd_immediate,0.4715240840014303,208.62518179199833,0.4715240840014303,208.62518179199833,0.0004229589976603165,0.0004229589976603165,,right,right,208.62507424999785,0.22121933300513774,1,208.00987545800308,209.4283257920033,1.4184503340002266,main,4
96,1,4,mixed04_level1_block04,19,active,shape_present,shape_present,knz_wob.png,shape,meaningful,frequent,shape_absent,right,top,,0.24193083400314208,209.81225450000056,0.4834069589996943,210.05373050000344,standard,0.08296399084609668,std.wav,0.3232057499990333,209.8935286670021,0.24193083400314208,209.81225450000056,0.4834069589996943,210.05373050000344,0.9421196670009522,210.512442457999,,0.941930834003142,210.51244370800123,0.7092414256617119,1.651172259664854,211.22183645800396,immediate,cd_immediate,0.5167075839999598,210.08703045800212,0.5167075839999598,210.08703045800212,0.0003651669976534322,0.0003651669976534322,,right,right,210.08695179200004,0.27441158299916424,1,209.42850441700284,211.22183645800396,1.793332041001122,main,4
97,1,4,mixed04_level1_block04,20,active,shape_present,shape_present,knz_wob.png,shape,meaningful,frequent,shape_absent,right,top,,0.24968245799391298,211.61182141699828,0.49973854099516757,211.861877000003,standard,-0.19187708931747055,std.wav,0.04863741599547211,211.41077591700014,0.24968245799391298,211.61182141699828,0.49973854099516757,211.861877000003,0.9497099999935017,212.31184770799882,,0.9496824579939129,212.3118488330001,0.22068351623179908,1.170365974225712,212.5325412079983,immediate,cd_immediate,0.45974066599592334,211.82187862499995,0.45974066599592334,211.82187862499995,0.00034449999657226726,0.00034449999657226726,,right,right,211.8218002499998,0.2097137080054381,1,211.22201320800377,212.5325412079983,1.3105279999945196,main,4
98,1,4,mixed04_level1_block04,21,baseline,shape_present,,,,,baseline,shape_absent,,,,,,,,blank,,,,,,,,,,,212.53694429199822,,,1.1537188908981524,,,,,,,,,,,,,,,,,212.5326938750004,213.69068162499752,1.157987749997119,main,4
99,1,4,mixed04_level1_block04,22,baseline,shape_present,,,,,baseline,shape_absent,,,,,,,,blank,,,,,,,,,,,213.69525250000152,,,1.246276160522693,,,,,,,,,,,,,,,,,213.69076512500033,214.94155287500325,1.250787750002928,main,4
100,1,4,mixed04_level1_block04,23,baseline,shape_present,,,,,baseline,shape_absent,,,,,,,,blank,,,,,,,,,,,214.9450930000021,,,1.5164752031631097,,,,,,,,,,,,,,,,,214.94166729199787,216.4615957499991,1.5199284580012318,main,4
101,1,8,mixed05_level1_block08,1,active,shape_present,shape_absent,nknz_wob.png,shape,ambiguous,rare,face_present,right,top,,0.24954054199770326,222.87029925000388,0.4912863749996177,223.11204379200353,standard,0.19388748170622716,std.wav,0.43459758300014073,223.05535495799995,0.24954054199770326,222.87029925000388,0.4912863749996177,223.11204379200353,0.9504830829973798,223.57124016700254,,0.9495405419977032,223.57124129200383,0.20351080366095975,1.153051345658663,223.7739967919988,immediate,cd_immediate,0.6274456669998472,223.24820304199966,0.6274456669998472,223.24820304199966,0.000356167001882568,0.000356167001882568,,right,right,223.24811908300035,0.37754895800026134,1,222.47645837500022,223.7739967919988,1.2975384169985773,main,5
102,1,8,mixed05_level1_block08,2,active,shape_present,face_absent,faa26.png,face,ambiguous,rare,face_present,right,bottom,,0.24999079199915286,224.03694095800165,0.49183866700332146,224.27878858300392,blank,,,,,0.24999079199915286,224.03694095800165,0.49183866700332146,224.27878858300392,0.9502837500040187,224.73723291700298,,0.9499907919991528,224.73723400000017,0.7133945479889523,1.6633853399881051,225.45040679199883,immediate,cd_immediate,0.6161185000019032,224.40306774999772,0.6161185000019032,224.40306774999772,0.00036795800406252965,0.00036795800406252965,,right,right,224.4029805829996,0.36575974999868777,1,223.77418587500142,225.45040679199883,1.6762209169974085,main,5
103,1,8,mixed05_level1_block08,3,active,shape_present,shape_present,knz_wob.png,shape,meaningful,frequent,face_present,left,bottom,,0.24984533300448675,225.83698145800008,0.4998412080021808,226.08697658299934,standard,0.12263128132902773,std.wav,0.3629674160038121,225.95010225000442,0.24984533300448675,225.83698145800008,0.4998412080021808,226.08697658299934,0.9508541660034098,226.53798924999865,,0.9498453330044867,226.5379907079987,0.6943734627483349,1.6442187957528216,227.23214362499857,none,cd_none,,,,,,,,left,left,226.11814945800143,0.28087795799365267,1,225.45054650000384,227.23214362499857,1.7815971249947324,main,5
104,1,8,mixed05_level1_block08,4,active,shape_present,shape_present,knz_bow.png,shape,meaningful,frequent,face_present,left,bottom,,0.24971754199941643,227.62020958300127,0.49973804200271843,227.87022983300267,deviant,-0.16731251031542782,deviant.wav,0.073254499999166,227.44374591700034,0.24971754199941643,227.62020958300127,0.49973804200271843,227.87022983300267,0.9499057499997434,228.32039704199997,,0.9497175419994164,228.32039816700126,0.4003610316836746,1.350078573683091,228.7205762079975,immediate,cd_immediate,0.4489909580006497,227.8194820830031,0.4489909580006497,227.8194820830031,0.00041570799658074975,0.00041570799658074975,,left,left,227.81939779200184,0.19885770800465252,1,227.23232262500096,228.7205762079975,1.488253582996549,main,5
105,1,8,mixed05_level1_block08,5,active,shape_present,shape_present,knz_wob.png,shape,meaningful,frequent,face_present,left,bottom,,0.24220233300002292,229.10420075000002,0.4916044999990845,229.35360237499845,standard,0.002515844260320893,std.wav,0.2433794169992325,229.10537695800303,0.24220233300002292,229.10420075000002,0.4916044999990845,229.35360237499845,0.9429810829969938,229.8049786670017,,0.9422023330000229,229.80497991700395,0.5063128521834224,1.4485151851834452,230.3112910830023,none,cd_none,,,,,,,,left,left,229.29993779199867,0.19544283400318818,1,228.72074391700153,230.3112910830023,1.5905471660007606,main,5
106,1,8,mixed05_level1_block08,6,active,shape_present,shape_absent,nknz_wob.png,shape,ambiguous,rare,face_present,right,top,,0.25002725000376813,230.56999170799827,0.49214670799847227,230.81211045799864,blank,,,,,0.25002725000376813,230.56999170799827,0.49214670799847227,230.81211045799864,0.9506457919997047,231.27060899999924,,0.9500272500037681,231.27061012500053,0.814499056725007,1.764526306728775,232.0846949580009,immediate,cd_immediate,0.5534584170018206,230.8734217079982,0.5534584170018206,230.8734217079982,0.00039758400089340284,0.00039758400089340284,,right,right,230.87331333300244,0.3030335829971591,1,230.3114810420011,232.0846949580009,1.7732139159998042,main,5
107,1,8,mixed05_level1_block08,7,active,shape_present,shape_present,knz_wob.png,shape,meaningful,frequent,face_present,left,bottom,,0.24968533399805892,232.47856033300195,0.49994975000299746,232.72882525000023,standard,-0.11923953452784598,std.wav,0.12167366700305138,232.35054887500155,0.24968533399805892,232.47856033300195,0.49994975000299746,232.72882525000023,0.9498969170017517,233.17877104200306,,0.9496853339980589,233.17877212500025,0.37586050528656745,1.3255458392846262,233.55464054200274,immediate,cd_immediate,0.415197583999543,232.64407183299772,0.415197583999543,232.64407183299772,0.0004147500003455207,0.0004147500003455207,,left,right,232.64397420800378,0.16509750000113854,0,232.08487725000305,233.55464054200274,1.4697632919996977,main,5
108,1,8,mixed05_level1_block08,8,active,shape_present,shape_present,knz_wob.png,shape,meaningful,frequent,face_present,left,bottom,,0.24201095799799077,233.93731524999748,0.4834228749969043,234.17872691700177,standard,0.20450783919485582,std.wav,0.4448670409983606,234.14017050000257,0.24201095799799077,233.93731524999748,0.4834228749969043,234.17872691700177,0.9421413329982897,234.63744491700345,,0.9420109579979907,234.63744629199937,0.2602200373658903,1.202230995363881,234.89777362500172,none,cd_none,,,,,,,,left,left,234.2395317920018,0.3019392499991227,1,233.5548019170019,234.89777362500172,1.3429717079998227,main,5
109,1,8,mixed05_level1_block08,9,active,shape_present,shape_present,knz_wob.png,shape,meaningful,frequent,face_present,left,bottom,,0.24184812499879627,235.27885416700155,0.49159612500079675,235.52860279200104,deviant,-0.05736890134926917,deviant.wav,0.1832608339973376,235.22026654200454,0.24184812499879627,235.27885416700155,0.49159612500079675,235.52860279200104,0.9427322920018923,235.97973787500086,,0.9418481249987962,235.97973900000216,0.2559032199073309,1.197751344906127,236.23489704199892,immediate,cd_immediate,0.5347822500043549,235.5717875420014,0.5347822500043549,235.5717875420014,0.00034383300226181746,0.00034383300226181746,,left,left,235.57169754200004,0.2925902920032968,1,234.89794604200142,236.23489704199892,1.336950999997498,main,5
110,1,8,mixed05_level1_block08,10,active,shape_present,shape_present,knz_wob.png,shape,meaningful,frequent,face_present,left,top,,0.24179070800164482,236.62039870800072,0.4831459580018418,236.86175341700437,standard,0.14312274781198314,std.wav,0.38334949999989476,236.76195654200274,0.24179070800164482,236.62039870800072,0.4831459580018418,236.86175341700437,0.9426981659999001,237.32130479199986,,0.9417907080016448,237.3213057920002,0.8831765824372526,1.8249672904388974,238.20433291699737,immediate,cd_immediate,0.5998782079986995,236.97848595800315,0.5998782079986995,236.97848595800315,0.00039962499431567267,0.00039962499431567267,,left,left,236.978379375003,0.357687875002739,1,236.23508541699994,238.20433291699737,1.9692474999974365,main,5
111,1,8,mixed05_level1_block08,11,active,shape_present,shape_present,knz_wob.png,shape,meaningful,frequent,face_present,left,top,,0.24974266599747352,238.5952705000018,0.4997452500028885,238.845272999999,standard,-0.1348127904326299,std.wav,0.10612925000168616,238.45165716700285,0.24974266599747352,238.5952705000018,0.4997452500028885,238.845272999999,0.9497917909975513,239.29531954199774,,0.9497426659974735,239.29532066699903,0.22718195798740082,1.1769246239848743,239.52260195800045,immediate,cd_immediate,0.5726757500015083,238.91820320799889,0.5726757500015083,238.91820320799889,0.0003970420002588071,0.0003970420002588071,,left,left,238.91810712499864,0.32253604200377595,1,238.20450162499765,239.52260195800045,1.3181003330028034,main,5
112,1,8,mixed05_level1_block08,12,active,shape_present,shape_present,knz_wob.png,shape,meaningful,frequent,face_present,left,top,,0.2417360830004327,239.90367733300081,0.4916338330003782,240.1535750000039,standard,-0.20266629843931386,std.wav,0.037383540999144316,239.69932445800077,0.2417360830004327,239.90367733300081,0.4916338330003782,240.1535750000039,0.9427322080009617,240.604672458001,,0.9417360830004327,240.6046735830023,0.7050555416266209,1.6467916246270535,241.30883950000134,immediate,cd_immediate,0.4612017499966896,240.12314229200274,0.4612017499966896,240.12314229200274,0.00038654200034216046,0.00038654200034216046,,left,left,240.12303783300013,0.21907912499591475,1,239.5227503749993,241.30883950000134,1.7860891250020359,main,5
113,1,8,mixed05_level1_block08,13,active,shape_present,shape_present,knz_wob.png,shape,meaningful,frequent,face_present,left,top,,0.2497937500011176,241.6953061250024,0.4997016250054003,241.94521366700064,standard,0.15469465610433947,std.wav,0.39551604200096335,241.8410281250035,0.2497937500011176,241.6953061250024,0.4997016250054003,241.94521366700064,0.9498121670039836,242.39532362500177,,0.9497937500011175,242.39532470799895,0.6592425247911324,1.60903627479225,243.0548139579987,immediate,cd_immediate,0.5866742080033873,242.0321857500021,0.5866742080033873,242.0321857500021,0.0003816660027951002,0.0003816660027951002,,left,left,242.0321066250035,0.33649879199947463,1,241.30900308299897,243.0548139579987,1.7458108749997336,main,5
114,1,8,mixed05_level1_block08,14,active,shape_present,shape_present,knz_bow.png,shape,meaningful,frequent,face_present,left,top,,0.24951687500288244,243.44521299999906,0.49103570800070884,243.6867316670032,standard,-0.1526740072231595,std.wav,0.08812516699981643,243.2838209170004,0.24951687500288244,243.44521299999906,0.49103570800070884,243.6867316670032,0.9505118329980178,244.14620683300018,,0.9495168750028824,244.14620787499734,0.6539231355783559,1.6034400105812383,244.79995775000134,immediate,cd_immediate,0.4259539999984554,243.62164929199935,0.4259539999984554,243.62164929199935,0.00035024999669985846,0.00035024999669985846,,left,left,243.62157033300173,0.1760868749988731,1,243.0549838750012,244.79995775000134,1.7449738750001416,main,5
115,1,8,mixed05_level1_block08,15,active,shape_present,face_absent,faa02.png,face,ambiguous,rare,face_present,right,bottom,,0.24155283399886684,245.20369745800417,0.4829694170039147,245.44511425000383,standard,-0.061979421972569504,std.wav,0.17828720900433837,245.14043195800332,0.24155283399886684,245.20369745800417,0.4829694170039147,245.44511425000383,0.9426134590030415,245.90475779199915,,0.9415528339988668,245.9047588329995,0.7141252365004478,1.6556780704993146,246.61787833300332,immediate,cd_immediate,0.4719764170004055,245.43412066699966,0.4719764170004055,245.43412066699966,0.0003983749993494712,0.0003983749993494712,,right,right,245.43403833299817,0.23002520800218917,1,244.8001116250016,246.61787833300332,1.8177667080017272,main,5
116,1,8,mixed05_level1_block08,16,active,shape_present,shape_present,knz_bow.png,shape,meaningful,frequent,face_present,left,bottom,,0.24966995799331926,247.028543583001,0.49112899999454385,247.27000166699872,standard,0.08018200038908868,std.wav,0.32043920799333137,247.09931154199876,0.24966995799331926,247.028543583001,0.49112899999454385,247.27000166699872,0.9498034579955856,247.72867587499786,,0.9496699579933192,247.72867704200326,0.20145232830728005,1.1511222863005992,247.9302386670024,immediate,cd_immediate,0.5343234159954591,247.31319570800406,0.5343234159954591,247.31319570800406,0.00039162499888334423,0.00039162499888334423,,left,left,247.3130993329978,0.28426183300325647,1,246.61804566700448,247.9302386670024,1.312192999997933,main,5
117,1,8,mixed05_level1_block08,17,active,shape_present,shape_present,knz_wob.png,shape,meaningful,frequent,face_present,left,bottom,,0.24996933399961563,248.3202483749992,0.4999004999990575,248.57017350000388,standard,0.23282021924450053,std.wav,0.4736070840008324,248.54387958299776,0.24996933399961563,248.3202483749992,0.4999004999990575,248.57017350000388,0.9509138339999481,249.02118629200413,,0.9499693339996156,249.02118741699815,0.45710987635080436,1.40707921035042,249.47815708300186,immediate,cd_immediate,0.5686640839994652,248.63893670799735,0.5686640839994652,248.63893670799735,0.0003556669980753213,0.0003556669980753213,,left,left,248.638864792003,0.31833908300177427,1,247.93039912499808,249.47815708300186,1.5477579580037855,main,5
118,1,8,mixed05_level1_block08,18,active,shape_present,shape_present,knz_wob.png,shape,meaningful,frequent,face_present,left,bottom,,0.249956084000587,249.87022691700258,0.491273417006596,250.1115435419997,standard,0.09194398107147711,std.wav,0.3323172920063371,249.9525877920023,0.249956084000587,249.87022691700258,0.491273417006596,250.1115435419997,0.9507559590056189,250.571025792,,0.949956084000587,250.57102708300226,0.7029398957286361,1.652895979729223,251.27331958300056,none,cd_none,,,,,,,,left,left,250.1818767500008,0.3113719579996541,1,249.4783368330027,251.27331958300056,1.794982749997871,main,5
119,1,8,mixed05_level1_block08,19,active,shape_present,shape_present,knz_bow.png,shape,meaningful,frequent,face_present,left,bottom,,0.2498080419973121,251.66190774999995,0.4915302090012119,251.90362787499907,standard,0.18465259251700522,std.wav,0.4256100839993451,251.83770699999877,0.2498080419973121,251.66190774999995,0.4915302090012119,251.90362787499907,0.9503635420041974,252.3624603749995,,0.9498080419973121,252.3624615000008,0.8161998058550515,1.7660078478523635,253.17900366699905,immediate,cd_immediate,0.5498824169990257,251.9619799170032,0.5498824169990257,251.9619799170032,0.0003852500012726523,0.0003852500012726523,,left,left,251.9618996249992,0.299689125000441,1,251.2734797919984,253.17900366699905,1.9055238750006538,main,5
120,1,8,mixed05_level1_block08,20,active,shape_present,shape_present,knz_bow.png,shape,meaningful,frequent,face_present,left,bottom,,0.2495111669995822,253.5952086670004,0.49108512500242796,253.8367817920007,standard,-0.10334374531872748,std.wav,0.1374662919988623,253.4831631249981,0.2495111669995822,253.5952086670004,0.49108512500242796,253.8367817920007,0.9498344169987831,254.2955307500015,,0.9495111669995822,254.2955321670015,0.5074582442149764,1.4569694112145586,254.80283520800003,immediate,cd_immediate,0.432284417001938,253.7779806250037,0.432284417001938,253.7779806250037,0.0003981670015491545,0.0003981670015491545,,left,left,253.7778930420027,0.18237508300080663,1,253.17917658299848,254.80283520800003,1.6236586250015534,main,5
121,1,8,mixed05_level1_block08,21,baseline,shape_present,,,,,baseline,face_present,,,,,,,,blank,,,,,,,,,,,254.8118597499997,,,0.9679845587650082,,,,,,,,,,,,,,,,,254.8030136669986,255.77990404199954,0.9768903750009486,main,5
122,1,8,mixed05_level1_block08,22,baseline,shape_present,,,,,baseline,face_present,,,,,,,,blank,,,,,,,,,,,255.7865873749979,,,1.5271084655173808,,,,,,,,,,,,,,,,,255.7800103749978,257.3137392080025,1.5337288330047159,main,5
123,1,8,mixed05_level1_block08,23,baseline,shape_present,,,,,baseline,face_present,,,,,,,,blank,,,,,,,,,,,257.32042433300376,,,0.9177538153689911,,,,,,,,,,,,,,,,,257.31383166700107,258.23821583300014,0.9243841659990721,main,5
124,1,15,mixed06_level1_block15,1,active,shape_absent,shape_absent,nknz_wob.png,shape,ambiguous,frequent,face_present,left,top,,0.2419244999982766,258.64550104200316,0.4915935000026366,258.8951695420037,standard,-0.18509253667888026,std.wav,0.05587124999874504,258.4594477080027,0.2419244999982766,258.64550104200316,0.4915935000026366,258.8951695420037,0.942268167003931,259.3458442080009,,0.9419244999982765,259.34584541700315,0.2457529138482524,1.187677413846529,259.59177949999867,none,cd_none,,,,,,,,left,left,258.89637533300265,0.2505851250025444,1,258.23831962500117,259.59177949999867,1.3534598749974975,main,6
125,1,15,mixed06_level1_block15,2,active,shape_absent,shape_absent,nknz_bow.png,shape,ambiguous,frequent,face_present,left,top,,0.24993991700466722,260.00352929200017,0.4999273749999702,260.2535161670021,deviant,0.20986484700711006,deviant.wav,0.45080199999938486,260.2043907080006,0.24993991700466722,260.00352929200017,0.4999273749999702,260.2535161670021,0.9505597500028671,260.7041478329993,,0.9499399170046672,260.7041490420015,0.37781956532985606,1.3277594823345233,261.0821017080016,delayed,cd_delayed,0.9506577499996638,260.7042463329999,0.9506577499996638,260.7042463329999,0.387198416996398,,,left,left,260.317304917,0.31351941599859856,1,259.5919584170042,261.0821017080016,1.4901432909973664,main,6
126,1,15,mixed06_level1_block15,3,active,shape_absent,shape_absent,nknz_bow.png,shape,ambiguous,frequent,face_present,left,bottom,,0.24984462499560323,261.4951763749996,0.4912640409966116,261.73659525000403,standard,0.0036566253214722344,std.wav,0.2499133749952307,261.4952447500036,0.24984462499560323,261.4951763749996,0.4912640409966116,261.73659525000403,0.9502476659981767,262.19557870800054,,0.9498446249956032,262.1955797920018,0.8956628876635024,1.8455075126591056,263.09101662500325,delayed,cd_delayed,0.950351707993832,262.1956828750044,0.950351707993832,262.1956828750044,0.43259083299926715,,,left,left,261.7633630420023,0.2679162499989616,1,261.08227266700123,263.09101662500325,2.0087439580020146,main,6
127,1,15,mixed06_level1_block15,4,active,shape_absent,face_absent,faa01.png,face,ambiguous,rare,face_present,right,bottom,,0.24988404200121295,263.3535164999994,0.4999067919998197,263.6035392920021,blank,,,,,0.24988404200121295,263.3535164999994,0.4999067919998197,263.6035392920021,0.9505436250037747,264.0541753330035,,0.9498840420012129,264.0541766669994,0.6809143058131353,1.6307983478143482,264.7348745420022,delayed,cd_delayed,0.9506299170025159,264.05426162500225,0.9506299170025159,264.05426162500225,0.4463775840049493,,,right,right,263.6081298749996,0.2543682909963536,1,263.091185917001,264.7348745420022,1.6436886250012321,main,6
128,1,15,mixed06_level1_block15,5,active,shape_absent,shape_absent,nknz_wob.png,shape,ambiguous,frequent,face_present,left,top,,0.24970754099922488,265.1452412080034,0.4913767079997342,265.38691008299793,standard,-0.2329854231181102,std.wav,0.007262999999511521,264.90279645800183,0.24970754099922488,265.1452412080034,0.4913767079997342,265.38691008299793,0.9505728750009439,265.8461059170004,,0.9497075409992248,265.84610695800075,0.6161496905760534,1.5658572315752783,266.4620251669985,delayed,cd_delayed,0.9506686659951811,265.8462017080019,0.9506686659951811,265.8462017080019,0.46526820799772395,,,left,left,265.38123641700076,0.23569291699823225,1,264.73500720800075,266.4620251669985,1.7270179589977488,main,6
129,1,15,mixed06_level1_block15,6,active,shape_absent,shape_absent,nknz_bow.png,shape,ambiguous,frequent,face_present,left,top,,0.24962337499891873,266.8702200830012,0.4909876660021837,267.1115839999984,standard,0.07440587236407659,std.wav,0.31511570799921174,266.935711625003,0.24962337499891873,266.8702200830012,0.4909876660021837,267.1115839999984,0.9504289160031476,267.5710245829978,,0.9496233749989187,267.5710257500032,0.2996601462467941,1.2492835212457127,267.8705560829985,delayed,cd_delayed,0.9515897910023341,267.57218591700075,0.9515897910023341,267.57218591700075,0.4555087909975555,,,left,left,267.1169625420007,0.24645762500585988,1,266.4621884169974,267.8705560829985,1.4083676660011406,main,6
130,1,15,mixed06_level1_block15,7,active,shape_absent,shape_absent,nknz_wob.png,shape,ambiguous,frequent,face_present,left,top,,0.24219462500332156,268.27050029199745,0.491891666999436,268.5201968330002,standard,0.10596236225619349,std.wav,0.3461265420046402,268.3744308750029,0.24219462500332156,268.27050029199745,0.491891666999436,268.5201968330002,0.9427485830019577,268.9710530000011,,0.9421946250033215,268.9710563330009,0.8599814291532379,1.8021760541565595,269.8311513330045,delayed,cd_delayed,0.9833002919986029,269.0116047920019,0.9833002919986029,269.0116047920019,0.47669329199561616,,,left,left,268.53515495800093,0.2644123749996652,1,267.8707182500002,269.8311513330045,1.9604330830043182,main,6
131,1,15,mixed06_level1_block15,8,active,shape_absent,shape_present,knz_bow.png,shape,meaningful,rare,face_present,right,bottom,,0.24978333299804945,270.2452356670037,0.4916377499976079,270.48708912500297,standard,0.026923220988914587,std.wav,0.26700699999491917,270.2624581670025,0.24978333299804945,270.2452356670037,0.4916377499976079,270.48708912500297,0.9501307909958996,270.9455815420006,,0.9497833329980494,270.94558258300094,0.5704930156127535,1.5202763486108029,271.5161429580039,delayed,cd_delayed,0.9502321659965673,270.94568425000034,0.9502321659965673,270.94568425000034,0.43880937499488937,,,right,right,270.50717375000386,0.26163945800362853,1,269.83132812500116,271.5161429580039,1.684814833002747,main,6
132,1,15,mixed06_level1_block15,9,active,shape_absent,shape_absent,nknz_wob.png,shape,ambiguous,frequent,face_present,left,top,,0.24974400000064634,271.9285460829997,0.4912214590003714,272.17002270800003,standard,0.15544067447351545,std.wav,0.39580920900334604,272.0746099169992,0.24974400000064634,271.9285460829997,0.4912214590003714,272.17002270800003,0.9501776250035618,272.62897820799844,,0.9497440000006463,272.62897937500384,0.29774551540220917,1.2474895154028554,272.92673895799817,delayed,cd_delayed,0.9585522920024232,272.6373535829989,0.9585522920024232,272.6373535829989,0.419570083002327,,,left,left,272.2180603750021,0.28923820899944985,1,271.51631749999797,272.92673895799817,1.4104214580002008,main,6
133,1,15,mixed06_level1_block15,10,active,shape_absent,shape_absent,nknz_wob.png,shape,ambiguous,frequent,face_present,left,top,,0.24971508300222922,273.3368627500022,0.49107000000367407,273.5782172920008,deviant,0.11230078494046752,deviant.wav,0.35238270799891325,273.43952962500043,0.24971508300222922,273.3368627500022,0.49107000000367407,273.5782172920008,0.9505475420010043,274.03769425000064,,0.9497150830022292,274.03769537500193,0.3609713478992077,1.3106864309014368,274.39872691700293,none,cd_none,,,,,,,,left,left,273.6410292080036,0.3038950839982135,1,272.92689066700405,274.39872691700293,1.471836249998887,main,6
134,1,15,mixed06_level1_block15,11,active,shape_absent,shape_absent,nknz_wob.png,shape,ambiguous,frequent,face_present,left,bottom,,0.25006429200584535,274.65351683300105,0.49153875000047265,274.8949913329998,blank,,,,,0.25006429200584535,274.65351683300105,0.49153875000047265,274.8949913329998,0.9507718750028289,275.35422379199736,,0.9500642920058453,275.3542251250037,0.2735385516102011,1.2236028436160464,275.6275310830024,delayed,cd_delayed,1.0833507089992054,275.486802833002,1.0833507089992054,275.486802833002,0.465204416999768,,,left,left,275.0218324169982,0.36808199999359204,1,274.3989142499995,275.6275310830024,1.2286168330028886,main,6
135,1,15,mixed06_level1_block15,12,active,shape_absent,shape_present,knz_bow.png,shape,meaningful,rare,face_present,right,bottom,,0.2419000000008964,276.02883212500456,0.4915672089991858,276.2784995000038,standard,-0.1259247370637194,std.wav,0.11423945899878163,275.9011715000015,0.2419000000008964,276.02883212500456,0.4915672089991858,276.2784995000038,0.9428434590008692,276.7297752919985,,0.9419000000008964,276.72977674999856,0.5784589472990498,1.5203589472999461,277.30742154199834,delayed,cd_delayed,0.9429426249989774,276.729874167002,0.9429426249989774,276.729874167002,0.4351660409956821,,,right,left,276.2950212920041,0.2658765840023989,0,275.62767358300334,277.30742154199834,1.6797479589949944,main,6
136,1,15,mixed06_level1_block15,13,active,shape_absent,face_absent,faa15.png,face,ambiguous,rare,face_present,right,top,,0.2497657080020872,277.72017941700324,0.49124104200018337,277.961653958002,standard,0.05358108093303893,std.wav,0.2944266670019715,277.7648391670009,0.2497657080020872,277.72017941700324,0.49124104200018337,277.961653958002,0.9502264580005431,278.42063870799757,,0.9497657080020872,278.42063979199884,0.7253098457617464,1.6750755537638335,279.146017375002,delayed,cd_delayed,0.950325249999878,278.4207377920029,0.950325249999878,278.4207377920029,0.3771114170012879,,,right,right,278.0439192920021,0.3234481249965029,1,277.30759604200284,279.146017375002,1.8384213329991326,main,6
137,1,15,mixed06_level1_block15,14,active,shape_absent,shape_absent,nknz_bow.png,shape,ambiguous,frequent,face_present,left,top,,0.2496995839974261,279.55353466700035,0.49974829200073145,279.8035841250021,standard,0.01953941381409202,std.wav,0.2604740419992595,279.5643086249984,0.2496995839974261,279.55353466700035,0.49974829200073145,279.8035841250021,0.9502617499965709,280.2540961249979,,0.949699583997426,280.2540972499992,0.7868723845555146,1.7365719685529406,281.0408265829974,delayed,cd_delayed,0.9503719999993336,280.2542067500035,0.9503719999993336,280.2542067500035,0.42343208300007973,,,left,left,279.8310637079994,0.2772403330018278,1,279.1461882080039,281.0408265829974,1.8946383749935194,main,6
138,1,15,mixed06_level1_block15,15,active,shape_absent,shape_absent,nknz_wob.png,shape,ambiguous,frequent,face_present,left,top,,0.2498103749967413,281.45356137499766,0.4999562090015388,281.70370783300314,standard,-0.23282859702527653,std.wav,0.007422167000186164,281.21117324999796,0.2498103749967413,281.45356137499766,0.4999562090015388,281.70370783300314,0.9506569590012077,282.1544071669996,,0.9498103749967413,282.1544083330009,0.44772628669472225,1.3975366616914635,282.60139312499814,delayed,cd_delayed,0.9507903749981779,282.15454108300037,0.9507903749981779,282.15454108300037,0.7469331249958486,,,left,left,281.45363120800175,-0.045953124994412065,1,281.0409954580027,282.60139312499814,1.5603976669954136,main,6
139,1,15,mixed06_level1_block15,16,active,shape_absent,shape_absent,nknz_bow.png,shape,ambiguous,frequent,face_present,left,top,,0.2499837080031284,283.0118502080004,0.4999258750031004,283.26179183299973,standard,0.13475247439390964,std.wav,0.37506008300260874,283.13692541699857,0.2499837080031284,283.0118502080004,0.4999258750031004,283.26179183299973,0.9502243750030175,283.71208991700405,,0.9499837080031284,283.712091333,0.7287162972199328,1.6787000052230612,284.4412989580014,delayed,cd_delayed,1.1265137500013225,283.8883793749992,1.1265137500013225,283.8883793749992,0.47270237500197254,,,left,left,283.4159574170044,0.4038276669962215,1,282.60159808299795,284.4412989580014,1.839700875003473,main,6
140,1,15,mixed06_level1_block15,17,active,shape_absent,shape_absent,nknz_wob.png,shape,ambiguous,frequent,face_present,left,bottom,,0.24961733300006017,284.8535047080004,0.491510207997635,285.09539691700047,standard,0.014973120954361707,std.wav,0.25605020800139755,284.8599363329995,0.24961733300006017,284.8535047080004,0.491510207997635,285.09539691700047,0.9498695000002044,285.55375574999925,,0.9496173330000601,285.5537572079993,0.8702771907109612,1.8198945237110213,286.4245850419975,none,cd_none,,,,,,,,left,left,285.0758780000033,0.2220813750027446,1,284.441475874999,286.4245850419975,1.9831091669984744,main,6
141,1,15,mixed06_level1_block15,18,active,shape_absent,shape_absent,nknz_wob.png,shape,ambiguous,frequent,face_present,left,top,,0.24965870899904985,286.83683533300064,0.4996558749990072,287.0868329580044,standard,-0.008666096322119204,std.wav,0.23233558399806498,286.81951266700344,0.24965870899904985,286.83683533300064,0.4996558749990072,287.0868329580044,0.9498663339982159,287.53704241700325,,0.9496587089990498,287.5370434170036,0.2676808207354365,1.2173395297344862,287.8055449579988,delayed,cd_delayed,0.9499683339963667,287.53714479200426,0.9499683339963667,287.53714479200426,0.5287115839964827,,,left,left,287.008761582998,0.1715980410008342,1,286.42476262499986,287.8055449579988,1.3807823329989333,main,6
142,1,15,mixed06_level1_block15,19,active,shape_absent,shape_absent,nknz_bow.png,shape,ambiguous,frequent,face_present,left,bottom,,0.24194758299563546,288.21214675000374,0.49159074999624863,288.46178962499835,standard,-0.023122794811744563,std.wav,0.21721183299814584,288.18741116700403,0.24194758299563546,288.21214675000374,0.49159074999624863,288.46178962499835,0.9419614159996854,288.9121597080011,,0.9419475829956354,288.91216066700144,0.8132054734648089,1.7551530564604443,289.7261304999993,none,cd_none,,,,,,,,left,left,288.47871654199844,0.2662759169979836,1,287.8057048749979,289.7261304999993,1.9204256250013714,main,6
143,1,15,mixed06_level1_block15,20,active,shape_absent,shape_absent,nknz_wob.png,shape,ambiguous,frequent,face_present,left,top,,0.2497341670023161,290.13681629200437,0.4997399999992922,290.3868218330026,standard,-0.0342211002703684,std.wav,0.20588216699979967,290.0929641250041,0.2497341670023161,290.13681629200437,0.4997399999992922,290.3868218330026,0.950238833000185,290.83731983300095,,0.949734167002316,290.8373208749981,0.8885388553733715,1.8382730223756876,291.7260948330004,delayed,cd_delayed,1.0146689579996746,290.9017503750001,1.0146689579996746,290.9017503750001,0.465272957997513,,,left,left,290.43679066700133,0.2996618329998455,1,289.72630066700367,291.7260948330004,1.9997941659967182,main,6
144,1,15,mixed06_level1_block15,21,baseline,shape_absent,,,,,baseline,face_present,,,,,,,,blank,,,,,,,,,,,291.72891333299776,,,1.4109004659294164,,,,,,,,,,,,,,,,,291.7262630000041,293.13983541700145,1.41357241699734,main,6
145,1,15,mixed06_level1_block15,22,baseline,shape_absent,,,,,baseline,face_present,,,,,,,,blank,,,,,,,,,,,293.14553266700386,,,1.1378925560005404,,,,,,,,,,,,,,,,,293.1399309999979,294.28347487500287,1.1435438750049798,main,6
146,1,15,mixed06_level1_block15,23,baseline,shape_absent,,,,,baseline,face_present,,,,,,,,blank,,,,,,,,,,,294.2865048329986,,,1.224480685017227,,,,,,,,,,,,,,,,,294.28356966700085,295.51103237499774,1.2274627079968923,main,6
147,1,6,mixed07_level1_block06,1,active,shape_absent,shape_present,knz_bow.png,shape,meaningful,rare,face_absent,left,top,,0.24968837499909569,306.8951398749996,0.49144329199771164,307.1368943749985,deviant,-0.03393336487186621,deviant.wav,0.2066477499975008,306.8520987919983,0.24968837499909569,306.8951398749996,0.49144329199771164,307.1368943749985,0.9504354590026196,307.5958860419996,,0.9496883749990956,307.5958871250041,0.21742673322754152,1.167115108226637,307.81340012500004,delayed,cd_delayed,0.9505262919992674,307.59597683299944,0.9505262919992674,307.59597683299944,0.38708491699799197,,,left,left,307.20918345799873,0.31375300000217976,1,306.47851279200404,307.81340012500004,1.3348873329960043,main,7
148,1,6,mixed07_level1_block06,2,active,shape_absent,shape_absent,nknz_wob.png,shape,ambiguous,frequent,face_absent,right,bottom,,0.24997116699523758,308.22854462500254,0.49172437499510124,308.4702975830005,standard,-0.07692478563702224,std.wav,0.16378120899753412,308.1423547500017,0.24997116699523758,308.22854462500254,0.49172437499510124,308.4702975830005,0.9510204589969362,308.92959283300297,,0.9499711669952375,308.92959395800426,0.3116297275870373,1.2616008945822748,309.2410200419981,delayed,cd_delayed,1.0109008340004948,308.9894735830021,1.0109008340004948,308.9894735830021,0.4766110420023324,,,right,right,308.51315587499994,0.2843186250029248,1,307.81356249999953,309.2410200419981,1.4274575419985922,main,7
149,1,6,mixed07_level1_block06,3,active,shape_absent,shape_absent,nknz_wob.png,shape,ambiguous,frequent,face_absent,right,top,,0.24176374999660766,309.64533791699796,0.49162387500109617,309.89519762500277,standard,-0.1855122367006041,std.wav,0.054779582998889964,309.4583533749974,0.24176374999660766,309.64533791699796,0.49162387500109617,309.89519762500277,0.9427432079974096,310.3463161670006,,0.9417637499966076,310.34631716700096,0.6536228393653676,1.5953865893619752,310.99981433300127,delayed,cd_delayed,0.9428439580005943,310.3464175830013,0.9428439580005943,310.3464175830013,0.4955617910018191,,,right,right,309.8511425830002,0.20551841700216755,1,309.2411882919987,310.99981433300127,1.7586260410025716,main,7
150,1,6,mixed07_level1_block06,4,active,shape_absent,shape_absent,nknz_wob.png,shape,ambiguous,frequent,face_absent,right,top,,0.24994225000409642,311.41184270800295,0.49172720800561365,311.6536272079975,standard,0.030465038550656964,std.wav,0.2714802080008667,311.43337966700346,0.24994225000409642,311.41184270800295,0.49172720800561365,311.6536272079975,0.9505914170003962,312.11249116699764,,0.9499422500040964,312.11249229199893,0.26527798733099645,1.2152202373350929,312.3773548329991,delayed,cd_delayed,0.9507060420000926,312.11260604199924,0.9507060420000926,312.11260604199924,0.4538123749953229,,,right,right,311.6590703750044,0.24695141700067325,1,310.99997095800063,312.3773548329991,1.3773838749984861,main,7
151,1,6,mixed07_level1_block06,5,active,shape_absent,shape_absent,nknz_bow.png,shape,ambiguous,frequent,face_absent,right,bottom,,0.25036687499959953,312.78698412499944,0.492185041999619,313.0288003329988,standard,0.02392054308679209,std.wav,0.2643187499998021,312.8009334579983,0.25036687499959953,312.78698412499944,0.492185041999619,313.0288003329988,0.9514111669996055,313.4880262919978,,0.9503668749995995,313.48802779200196,0.5784888032637869,1.5288556782633864,314.0655949170032,delayed,cd_delayed,0.9515060839985381,313.48812095799804,0.9515060839985381,313.48812095799804,0.3998860420033452,,,right,right,313.08852987499995,0.30125316699559335,1,312.37752912499855,314.0655949170032,1.688065792004636,main,7
152,1,6,mixed07_level1_block06,6,active,shape_absent,shape_absent,nknz_bow.png,shape,ambiguous,frequent,face_absent,right,top,,0.24993583299510647,314.4785025000019,0.4918894160000491,314.7204554580021,standard,0.06427016726456397,std.wav,0.3046426250002696,314.5332083329995,0.24993583299510647,314.4785025000019,0.4918894160000491,314.7204554580021,0.9501522909995401,315.1787181250038,,0.9499358329951064,315.178719208001,0.40820337032540527,1.3581392033205117,315.58716566699877,delayed,cd_delayed,0.9502562080015196,315.1788222500036,0.9502562080015196,315.1788222500036,0.38300375000108033,,,right,right,314.79612199999974,0.31731662500533275,1,314.0657620830025,315.58716566699877,1.521403583996289,main,7
