trial_global_index,level,block,trial_in_block,trial_type,standard_category,stimulus_category,stimulus_file,stimulus_family,stimulus_meaning,frequency_class,omitted_category,target_side,visual_distractor_pos,auditory_class,auditory_offset_s,paired_tone_file,paired_tone_onset_s,paired_tone_onset_global_s,visual_onset_s,visual_onset_global_s,visual_offset_s,visual_offset_global_s,response_window_end_s,response_window_end_global_s,baseline_onset_global_s,post_mask_start_s,post_mask_start_global_s,post_mask_duration_s,post_mask_end_s,post_mask_end_global_s,corollary_mode,corollary_onset_s,corollary_onset_global_s,reversal_phase,correct_response,response,rt_s,accuracy,trial_start_global_s,trial_end_global_s,trial_duration_s,phase,mixed_block_index
1,2,0,1,active,face_present,face_present,fpa26.png,face,meaningful,frequent,,left,top,standard,-0.10057071187630723,std.wav,0.13993458400364034,29.356849791991408,0.24912954200408421,29.46604433399625,0.4909382500045467,29.707852833991637,0.9493207500054268,30.166234459000407,,0.9491295420040842,30.166235416996642,0.2218833546974972,1.1710128967015814,30.3883898339991,immediate,,,,left,,,0,29.08795674999419,30.3883898339991,1.3004330840049079,practice,
2,2,0,2,active,face_present,face_present,fpa07.png,face,meaningful,frequent,,left,top,standard,-0.05946526269610128,std.wav,0.18132395800785162,30.68928754198714,0.24994350000633858,30.75790633399447,0.4913625830085948,30.999325583994505,0.9502954159979708,31.4582578749978,,0.9499435000063385,31.458258958999068,0.24896557259571814,1.1989090726020566,31.70746745899669,delayed,1.1302664160029963,31.638244458998088,,left,,,0,30.388600999998744,31.70746745899669,1.3188664589979453,practice,
3,2,0,3,active,face_present,face_present,fpa07.png,face,meaningful,frequent,,left,top,standard,-0.22886810366848764,std.wav,0.011407084006350487,31.83606833399972,0.24195083399536088,32.06661141698714,0.49163579200103413,32.31629724999948,0.9429649999947287,32.76762533398869,,0.9419508339953608,32.76762637498905,0.3814620958229249,1.3234129298182857,33.148741583994706,delayed,1.2528943340003025,33.07756329199765,,left,left,0.3253210830007447,1,31.70760995899036,33.148741583994706,1.4411316250043456,practice,
4,2,6,1,active,face_present,face_present,fpa11.png,face,meaningful,frequent,,left,bottom,standard,0.01826992393878729,std.wav,0.2590042090014322,38.95065362499736,0.24935312500747386,38.94100237499515,0.49188808401231654,39.18353716698766,0.9499565840087598,39.64160512499802,,0.9493531250074738,39.641606334000244,0.6054139936986349,1.5547671187061087,40.247306416989886,immediate,0.7133346250047907,39.404985874993145,,left,left,0.35958341699733865,1,38.56812908400025,40.247306416989886,1.6791773329896387,main,1
5,2,6,2,active,face_present,face_present,fpa12.png,face,meaningful,frequent,,left,bottom,standard,-0.13096093255772662,std.wav,0.10911762500472832,40.47538820900081,0.24164429100346752,40.6079147089913,0.48320129100466147,40.84947229200043,0.9416972500039265,41.30796741700033,,0.9416442910034675,41.307968958994024,0.37497465127767204,1.3166189422811394,41.6837938339886,immediate,0.6436192499968456,41.00989074999234,,left,left,0.2977224169881083,1,40.24747520899109,41.6837938339886,1.4363186249975115,main,1
6,2,6,3,active,face_present,face_present,fpa20.png,face,meaningful,frequent,,left,top,standard,0.1283384785442072,std.wav,0.3687397920002695,42.16806154199003,0.2503147499955958,42.04963758398662,0.500303916996927,42.29962587499176,0.9512160000012955,42.750537458996405,,0.9503147499955957,42.75053845898947,0.4369484821025382,1.387263232098134,43.18699408399698,delayed,1.1821987089933828,42.98152937499981,,left,left,0.5249872499989579,1,41.68396166698949,43.18699408399698,1.5030324170074891,main,1
7,2,6,4,active,face_present,face_absent,faa02.png,face,ambiguous,rare,,right,bottom,standard,0.11243737333789183,std.wav,0.35329633300716523,43.66127562499605,0.25002083300205413,43.55800062499475,0.4918834580021212,43.799862959000166,0.9507404160103761,44.25871920899954,,0.9500208330020541,44.2587202089926,0.3059894307212384,1.2560102637232924,44.5649274999887,immediate,0.6601758330070879,43.96815745899221,,right,right,0.3058334170054877,1,43.18712974998925,44.5649274999887,1.377797749999445,main,1
8,2,6,5,active,face_present,face_present,fpa26.png,face,meaningful,frequent,,left,top,blank,,,,,0.24545745899376925,44.82040583399066,0.48753879200376105,45.062487124989275,0.9456257089914288,45.520573292000336,,0.9454574589937692,45.5205742919934,0.3915631820087895,1.3370206410025587,45.91291141699185,immediate,0.7618546669982607,45.336805874991114,,left,left,0.41310570800851565,1,44.56511074998707,45.91291141699185,1.3478006670047762,main,1
9,2,6,6,active,face_present,face_present,fpa27.png,face,meaningful,frequent,,left,bottom,standard,-0.20664741853775018,std.wav,0.034011208001174964,46.071220416997676,0.24991133299772628,46.28712008398725,0.4998203330032993,46.53702941699885,0.9509699579939479,46.98817866698664,,0.9499113329977262,46.98818033399584,0.612564589684452,1.5624759226821783,47.599848833997385,immediate,0.682749874991714,46.7199597919971,,left,left,0.3294157920026919,1,45.913057874990045,47.599848833997385,1.6867909590073396,main,1
10,2,6,7,active,face_present,face_present,fpa12.png,face,meaningful,frequent,,left,bottom,standard,-0.20883064967164905,std.wav,0.03206520799722057,47.75286379198951,0.241855582993594,47.96265416700044,0.490990749996854,48.211789041990414,0.9428790829988429,48.66367741698923,,0.941855582993594,48.66367891700065,0.4809088326430983,1.4227644156366923,49.14429349999409,immediate,0.6594772499956889,48.38027804199373,,left,left,0.3138550000003306,1,47.600011208996875,49.14429349999409,1.5442822909972165,main,1
11,2,6,8,active,face_present,face_present,fpa24.png,face,meaningful,frequent,,left,bottom,standard,0.1503741649710399,std.wav,0.3911050000024261,49.65351333399303,0.24942362500587478,49.51183254198986,0.4913709579996066,49.75377962499624,0.9495576250046724,50.2119657919975,,0.9494236250058747,50.21196683398739,0.5509050935077535,1.5003287185136283,50.76275016699219,delayed,1.2181720410007983,50.480588083999464,,left,left,0.29255420799017884,1,49.14444766700035,50.76275016699219,1.6183024999918416,main,1
12,2,6,9,active,face_present,face_present,fpa12.png,face,meaningful,frequent,,left,bottom,standard,-0.15216166326292685,std.wav,0.0884375000023283,50.966967458996805,0.24996670900145546,51.12849579199974,0.5753430420008954,51.453872333993786,0.9502734999987297,51.82880199998908,,0.9499667090014554,51.828803166994476,0.20498221425806917,1.1549489232595245,52.03376404198934,immediate,0.562603999991552,51.44113404199015,,left,left,0.20985658299468923,1,50.762889958990854,52.03376404198934,1.270874082998489,main,1
13,2,6,10,active,face_present,face_absent,faa01.png,face,ambiguous,rare,,right,bottom,standard,-0.0652471761420779,std.wav,0.1750617920042714,52.32894924998982,0.2496067089959979,52.40349379199324,0.4914569999964442,52.64534416698734,0.95050220900157,53.104388833991834,,0.9496067089959979,53.10438991698902,0.32951668695004394,1.2791233959460417,53.4334938749962,delayed,1.1080733749986393,53.261967958998866,,right,right,0.2928639580059098,1,52.033945499992114,53.4334938749962,1.3995483750040876,main,1
14,2,6,11,active,face_present,face_present,fpa13.png,face,meaningful,frequent,,left,bottom,standard,-0.055423343562365446,std.wav,0.18557679100194946,53.73930337499769,0.24176504099159501,53.79549124999903,0.48356416600290686,54.037290333988494,0.942452332994435,54.49617808399489,,0.941765040991595,54.49617916699208,0.4567501581034734,1.3985151990950684,54.95320499999798,delayed,1.2603260000032606,54.81406274999608,,left,left,0.19884708400059026,1,53.433635791996494,54.95320499999798,1.519569208001485,main,1
15,2,6,12,active,face_present,face_present,fpa08.png,face,meaningful,frequent,,left,top,standard,-0.048055865215303306,std.wav,0.192078957988997,55.262254666988156,0.24191020798753016,55.31208533399331,0.4832964999950491,55.553471791994525,0.9419874169980176,56.012162083992735,,0.9419102079875301,56.012163249994046,0.8303367259246639,1.772246933912194,56.843097958990256,delayed,1.2246226249990286,56.29480424999201,,left,left,0.3142563750006957,1,54.953366083995206,56.843097958990256,1.88973187499505,main,1
16,2,6,13,active,face_present,face_present,fpa16.png,face,meaningful,frequent,,left,top,deviant,0.05465560264247932,deviant.wav,0.2952517910016468,57.257634374997,0.2494391660002293,57.211821666991455,0.4917036249971716,57.45408612499887,0.9496907499997178,57.912072624996654,,0.9494391660002293,57.912073666986544,0.5478276209958144,1.4972667869960437,58.46046312499675,delayed,1.2665029999916442,58.228893624997,,left,left,0.27948766699410044,1,56.8432640839892,58.46046312499675,1.6171990410075523,main,1
17,2,6,14,active,face_present,face_absent,faa17.png,face,ambiguous,rare,,right,top,standard,-0.020249187428140414,std.wav,0.21982312500767875,58.79894708399661,0.24935483300941996,58.82847883399518,0.4915674579970073,59.07069199999387,0.9502802500064718,59.529403249995084,,0.9493548330094199,59.529404333996354,0.36418635910013997,1.3135411921095599,59.89310541699524,delayed,1.2585635830037063,59.837694208996254,,right,right,0.25086529199325014,1,58.46060341699922,59.89310541699524,1.4325019999960205,main,1
18,2,6,15,active,face_present,face_present,fpa08.png,face,meaningful,frequent,,left,top,deviant,0.12471611917307968,deviant.wav,0.3657423749973532,60.37391320899769,0.24193341699719895,60.25010437499441,0.4911433749948628,60.499314000000595,0.9428715420071967,60.95104216699838,,0.9419334169971989,60.95104320898827,0.8136927131858307,1.7556261301830296,61.7640495839878,immediate,0.6044520419964101,60.612623958993936,,left,left,0.25904916699801106,1,59.89325566698972,61.7640495839878,1.8707939169980818,main,1
19,2,6,16,active,face_present,face_present,fpa23.png,face,meaningful,frequent,,left,top,standard,0.0006770245555138554,std.wav,0.24208408300182782,62.12497999999323,0.24200574999849778,62.124902333991486,0.4876180830033263,62.370514499998535,0.9429486250010086,62.82584424999368,,0.9420057499984977,62.82584529199812,0.628206827395386,1.5702125773938838,63.4536100839905,immediate,0.6228792500041891,62.50577737498679,,left,left,0.2768920829985291,1,61.76420258398866,63.4536100839905,1.6894075000018347,main,1
20,2,6,17,active,face_present,face_present,fpa26.png,face,meaningful,frequent,,left,top,standard,0.13043780187409432,std.wav,0.3707010420039296,63.94146529199497,0.24177995799982455,63.81254495900066,0.49106454200227745,64.06182929199713,0.9420856250071665,64.51284974999726,,0.9417799579998245,64.51285083399853,0.2821995020914051,1.2239794600912295,64.7950239169877,delayed,1.1418692080042092,64.71264158398844,,left,left,0.284691084001679,1,63.45374616699701,64.7950239169877,1.3412777499906952,main,1
21,2,6,18,active,face_present,face_present,fpa29.png,face,meaningful,frequent,,left,top,standard,0.103278467788112,std.wav,0.34399649999977555,65.25583429199469,0.24605170798895415,65.15788983399398,0.4876307079975959,65.39946895898902,0.9466717920004157,65.85850933399342,,0.9460517079889541,65.85851054199156,0.5943231079596849,1.540374815948639,66.45249220899132,delayed,1.0514690419950057,65.9633163749968,,left,left,0.3082674170000246,1,64.79517691698857,66.45249220899132,1.6573152920027496,main,1
22,2,6,19,active,face_present,face_absent,faa24.png,face,ambiguous,rare,,right,bottom,blank,,,,,0.24939454199920874,66.70764433399017,0.49110329200630076,66.94935312499001,0.9495195000054082,67.40776874999574,,0.9493945419992087,67.40777004198753,0.855012248848795,1.8044067908480037,68.26296129199909,immediate,0.6219105000054697,67.08016229199711,,right,right,0.26833141600945964,1,66.45264066699019,68.26296129199909,1.8103206250088988,main,1
23,2,6,20,active,face_present,face_present,fpa30.png,face,meaningful,frequent,,left,top,standard,0.10201046060965446,std.wav,0.34233362501254305,68.72554433399637,0.24942283300333656,68.63263395898684,0.4996966660110047,68.8829084589961,0.9495853750122478,69.3327962919866,,0.9494228330033365,69.33279779199802,0.5420792425141983,1.4915020755175348,69.87479904199427,delayed,1.1669470830092905,69.55016704199079,,left,left,0.2883887079951819,1,68.26308525000059,69.87479904199427,1.6117137919936795,main,1
24,2,6,21,baseline,face_present,,,,,baseline,,,,blank,,,,,,,,,,,69.88350320899917,,,1.1388437470213049,,,,,,,,,,,69.87498854199657,71.02241204198799,1.1474234999914188,main,1
25,2,6,22,baseline,face_present,,,,,baseline,,,,blank,,,,,,,,,,,71.0248608749971,,,0.9027241686476729,,,,,,,,,,,71.02256554199266,71.92762720899191,0.9050616669992451,main,1
26,2,6,23,baseline,face_present,,,,,baseline,,,,blank,,,,,,,,,,,71.93292508399463,,,1.4868928116546374,,,,,,,,,,,71.92772183399939,73.41987629199866,1.492154457999277,main,1
27,2,9,1,active,face_absent,face_absent,faa11.png,face,ambiguous,frequent,,left,bottom,standard,-0.011496109688138911,std.wav,0.22904299999936484,78.31227012499585,0.249421041997266,78.33264799999597,0.4916285420040367,78.57485529199766,0.9496156249952037,79.03284187499958,,0.949421041997266,79.03284299999359,0.5471301972323366,1.4965512392296025,79.57988083398959,delayed,1.1319167920009932,79.21515091699257,,left,left,0.39258079099818133,1,77.95687179199012,79.57988083398959,1.6230090419994667,main,2
28,2,9,2,active,face_absent,face_absent,faa09.png,face,ambiguous,frequent,,left,bottom,deviant,-0.20936661940231827,deviant.wav,0.03094916600093711,79.7307891669916,0.24944354100443888,79.94928391699796,0.49200845799350645,80.19184870900062,0.9500421659904532,80.64988166699186,,0.9494435410044388,80.64988274998905,0.8482839771495887,1.7977275181540275,81.49857620899274,delayed,1.0536743749980815,80.75352399999974,,left,left,0.2418888749962207,1,79.5800425419875,81.49857620899274,1.9185336670052493,main,2
29,2,9,3,active,face_absent,face_absent,faa17.png,face,ambiguous,frequent,,left,top,standard,-0.2183679517446456,std.wav,0.022696332991472445,81.63926287498907,0.2494052499969257,81.86597166699357,0.5581881669932045,82.1747544999962,0.9499080419918755,82.56647370899736,,0.9494052499969257,82.56647474999772,0.8004889272590379,1.7498941772559635,83.36708479200024,immediate,0.5474337079940597,82.16400241699012,,left,left,0.19412575000023935,1,81.49872841699107,83.36708479200024,1.8683563750091707,main,2
30,2,9,4,active,face_absent,face_absent,faa12.png,face,ambiguous,frequent,,left,bottom,blank,,,,,0.24943208298645914,83.62428954200004,0.4915151659952244,83.86637262499426,0.9494457909895573,84.32430279199616,,0.9494320829864591,84.32430391699017,0.46194529952895075,1.41137738251541,84.78716970898677,immediate,0.719210999988718,84.09407216699037,,left,left,0.3659303330059629,1,83.3672454169864,84.78716970898677,1.4199242920003599,main,2
31,2,9,5,active,face_absent,face_absent,faa28.png,face,ambiguous,frequent,,left,top,standard,0.1534491827701583,std.wav,0.39429908301099204,85.29835562499647,0.24179216699849349,85.14584949999698,0.49106691700580996,85.39512379199732,0.9418962500058115,85.84595270898717,,0.9417921669984934,85.84595370899478,0.7106278619408848,1.6524200289393782,86.55654341699847,immediate,0.6170046250044834,85.52106333398842,,left,left,0.27131308300886303,1,84.78731483400043,86.55654341699847,1.7692285829980392,main,2
32,2,9,6,active,face_absent,face_absent,faa27.png,face,ambiguous,frequent,,left,bottom,blank,,,,,0.24212812499899883,86.8122438749997,0.5044996670039836,87.07461504198727,0.9430094999988796,87.51312454199069,,0.9421281249989988,87.51312570899609,0.2570113585219912,1.19913948352099,87.76934508398699,immediate,0.6595165000035195,87.22963308398903,,left,left,0.31391499999153893,1,86.55671354199876,87.76934508398699,1.2126315419882303,main,2
33,2,9,7,active,face_absent,face_absent,faa15.png,face,ambiguous,frequent,,left,bottom,standard,-0.23749694349423836,std.wav,0.0030837079975754023,87.89437029199325,0.2419235419947654,88.13320945898886,0.4833582919964101,88.3746439999959,0.9424096250004368,88.8336948340002,,0.9419235419947654,88.83369587500056,0.27131065929928166,1.2132342012940471,89.1047512919904,delayed,1.0996707919985056,88.99096412499784,,left,left,0.28982991600059904,1,87.76947670899972,89.1047512919904,1.335274582990678,main,2
34,2,9,8,active,face_absent,face_absent,faa01.png,face,ambiguous,frequent,,left,bottom,standard,-0.08576275443043299,std.wav,0.1549332919967128,89.37981779199617,0.24943466699915007,89.47431883399258,0.49157795899373014,89.71646229199541,0.9501425419875886,90.17502629199589,,0.94943466699915,90.17502733400033,0.24087949052871296,1.190314157527863,90.41570079200028,delayed,1.083194458988146,90.30808674999571,,left,left,0.2807444579957519,1,89.10490108399244,90.41570079200028,1.3107997080078349,main,2
35,2,9,9,active,face_absent,face_absent,faa10.png,face,ambiguous,frequent,,left,top,standard,-0.15899341301641398,std.wav,0.08155533400713466,90.61451141699217,0.24966266700357664,90.78261849998671,0.4913500840048073,91.02430587499111,0.9501366670010611,91.48309154198796,,0.9496626670035766,91.4830955840007,0.6582381276954824,1.6079007946990589,92.14153983398865,immediate,0.6377057089994196,91.17066354199778,,left,left,0.26349533299799077,1,90.41587008399074,92.14153983398865,1.7256697499979055,main,2
36,2,9,10,active,face_absent,face_present,fpa25.png,face,meaningful,rare,,right,bottom,standard,0.0883232387467483,std.wav,0.32869720800954383,92.61187845899258,0.24942995799938217,92.53261199999542,0.49109145801048726,92.7742726669967,0.9499132080090931,93.23309412499657,,0.9494299579993821,93.23309512498963,0.2996613414495056,1.2490912994488879,93.53317895899818,delayed,1.1123725000070408,93.39556204198743,,right,left,0.05138620799698401,0,92.14169554199907,93.53317895899818,1.3914834169991082,main,2
37,2,9,11,active,face_absent,face_present,fpa24.png,face,meaningful,rare,,right,bottom,deviant,0.10915911007539891,deviant.wav,0.3500110840104753,94.02463416699902,0.24192208400927484,93.91654583399941,0.49154316700878553,94.16616674998659,0.9424059169978136,94.61702891699679,,0.9419220840092748,94.6170300419908,0.34170032743726275,1.2836224114465375,94.9584741669969,immediate,0.6865931250067661,94.36121820900007,,right,right,0.3194147499889368,1,93.5333322089864,94.9584741669969,1.4251419580104994,main,2
38,2,9,12,active,face_absent,face_absent,faa17.png,face,ambiguous,frequent,,left,bottom,standard,0.015041887617514793,std.wav,0.2560149589990033,95.35566087499319,0.24202612500812393,95.34167279199755,0.4912866670056246,95.5909327089903,0.9429697089944966,96.04261558399594,,0.9420261250081239,96.04261670898995,0.6110652970696716,1.5530914220777956,96.65300379198743,immediate,0.6184551670012297,95.7181049589999,,left,left,0.2510672919888748,1,94.95860933398944,96.65300379198743,1.694394457997987,main,2
39,2,9,13,active,face_absent,face_present,fpa22.png,face,meaningful,rare,,right,top,standard,-0.16733044642242223,std.wav,0.07331725000403821,96.86493920898647,0.24935141700552776,97.04097291699145,0.495393334000255,97.28701470899978,0.9503713750018505,97.74199241699534,,0.9493514170055277,97.74199345899979,0.35241529291138085,1.3017667099169086,98.09430237500055,immediate,0.48440337501233444,97.27602683399164,,right,right,0.10976245799975004,1,96.65315766699496,98.09430237500055,1.441144708005595,main,2
40,2,9,14,active,face_absent,face_absent,faa14.png,face,ambiguous,frequent,,left,bottom,standard,-0.16944034946487108,std.wav,0.07126599999901373,98.30835699998715,0.2496693329885602,98.48675987499882,0.4915149169974029,98.72860574998776,0.9497851669875672,99.1868754169991,,0.9496693329885602,99.18687658398994,0.5580802277630115,1.5077495607515716,99.74511804198846,immediate,0.6327084579970688,98.8698008749925,,left,left,0.2570863750006538,1,98.09446183399996,99.74511804198846,1.6506562079885043,main,2
41,2,9,15,active,face_absent,face_present,fpa05.png,face,meaningful,rare,,right,top,standard,-0.23932719924151447,std.wav,0.0010809579980559647,99.88838645898795,0.2494542909989832,100.1367597089993,0.4911441250005737,100.37844945899269,0.9503590829990571,100.83766387499054,,0.9494542909989832,100.83766483399086,0.8812119145994168,1.8306662055984,101.7186439169891,delayed,1.1042106660024729,100.99152270899503,,right,left,0.07802579199778847,0,99.745252083987,101.7186439169891,1.973391833002097,main,2
42,2,9,16,active,face_absent,face_absent,faa11.png,face,ambiguous,frequent,,left,bottom,standard,0.11777024573453787,std.wav,0.3580640830041375,102.22040008399927,0.24944408300507348,102.11178070899041,0.49107541600824334,102.35341154198977,0.9494915830000537,102.8118271669955,,0.9494440830050734,102.81182820899994,0.7755043221067122,1.7249484051117856,103.5875862499961,delayed,1.1356955830124207,102.9980397499894,,left,left,0.29485866699542385,1,101.71878908399958,103.5875862499961,1.8687971659965115,main,2
43,2,9,17,active,face_absent,face_absent,faa26.png,face,ambiguous,frequent,,left,bottom,standard,-0.09356035646820152,std.wav,0.14666658399801236,103.87569458399958,0.24964416699367575,103.9786716249946,0.6163238750013988,104.345350958989,0.9500762499956181,104.67910408398893,,0.9496441669936757,104.67910529198707,0.7850872800516977,1.7347314470453734,105.46453783399193,immediate,0.6053233749989886,104.33435258398822,,left,left,0.2304370000056224,1,103.58784049999667,105.46453783399193,1.8766973339952528,main,2
44,2,9,18,active,face_absent,face_absent,faa07.png,face,ambiguous,frequent,,left,bottom,standard,-0.1391863069363447,std.wav,0.10099670800263993,105.70506612499594,0.2493718330078991,105.85344104199612,0.490988625009777,106.09505779198662,0.9495849579980131,106.55365354199603,,0.9493718330078991,106.55365470898687,0.8903382599243195,1.8397100929322185,107.44471308399807,delayed,1.109702665999066,106.7137803339865,,left,left,0.31225000000267755,1,105.46473195900035,107.44471308399807,1.979981124997721,main,2
45,2,9,19,active,face_absent,face_absent,faa30.png,face,ambiguous,frequent,,left,bottom,standard,0.038115644067527266,std.wav,0.27820970900938846,107.86561587499455,0.24936979199992493,107.83677587499551,0.49102916700940114,108.07843483399483,0.9503719170024851,108.53777716698823,,0.9493697919999249,108.5377785419987,0.4539482408385847,1.4033180328385095,108.99101954199432,delayed,1.1342180840001674,108.72163524999633,,left,left,0.31183608299761545,1,107.44485574999999,108.99101954199432,1.5461637919943314,main,2
46,2,9,20,active,face_absent,face_absent,faa24.png,face,ambiguous,frequent,,left,top,standard,-0.053986546384952594,std.wav,0.18635841700597666,109.31512370899145,0.24966900001163594,109.37843425000028,0.49146887501410674,109.62023424998915,0.9499742500047432,110.07873908399779,,0.9496690000116359,110.0787402089918,0.28516489319825733,1.2348338932098932,110.36440483399201,delayed,1.1902612500125542,110.31903462499031,,left,left,0.31258362499647774,1,108.99116741699982,110.36440483399201,1.3732374169921968,main,2
47,2,9,21,baseline,face_absent,,,,,baseline,,,,blank,,,,,,,,,,,110.37037608399987,,,0.9880212968305374,,,,,,,,,,,110.36456133399042,111.35843687498709,0.9938755409966689,main,2
48,2,9,22,baseline,face_absent,,,,,baseline,,,,blank,,,,,,,,,,,111.36177358399436,,,1.4452714558983693,,,,,,,,,,,111.35855137500039,112.80707870899641,1.4485273339960258,main,2
49,2,9,23,baseline,face_absent,,,,,baseline,,,,blank,,,,,,,,,,,112.81200391698803,,,1.5514825519564566,,,,,,,,,,,112.80717895898852,114.36352162499679,1.5563426660082769,main,2
50,2,13,1,active,face_present,face_present,fpa18.png,face,meaningful,frequent,,left,top,deviant,0.12902781341703418,deviant.wav,0.36974808300146833,127.94044670899166,0.24940137499652337,127.82010033399274,0.4913666249922244,128.06206558398844,0.9497807909938274,128.5204792500008,,0.9494013749965233,128.52048045898846,0.6749209511523468,1.6243223261488702,129.19594045898702,immediate,0.6998634999908973,128.27056412499223,,left,left,0.32526783300272655,1,127.42370320898772,129.19594045898702,1.772237249999307,main,3
51,2,13,2,active,face_present,face_absent,faa25.png,face,ambiguous,rare,,right,bottom,standard,0.1319380448364431,std.wav,0.372647042007884,129.70999320899136,0.24975245801033452,129.58709924999857,0.4996810830052709,129.83702749999065,0.9507541250059148,130.28810062499542,,0.9497524580103345,130.28810470899043,0.6940097368606972,1.6437621948710317,130.9818877499929,delayed,1.245335542000248,130.5826907499868,,right,right,0.33958200000051875,1,129.19609779199527,130.9818877499929,1.785789957997622,main,3
52,2,13,3,active,face_present,face_absent,faa25.png,face,ambiguous,rare,,right,bottom,standard,0.08853822100087833,std.wav,0.32961475000774954,131.45031412498793,0.24969895799586084,131.37039887499122,0.4912917500041658,131.6119917499891,0.9502442499942845,132.07094358399627,,0.9496989579958608,132.07094487499853,0.7261786070976086,1.6758775650934694,132.79661449999548,delayed,1.0868069999996806,132.20751729198673,,right,right,0.3008797500078799,1,130.98204212498968,132.79661449999548,1.8145723750058096,main,3
53,2,13,4,active,face_present,face_present,fpa23.png,face,meaningful,frequent,,left,bottom,standard,-0.12012605467127763,std.wav,0.12005099999078084,133.05769654198957,0.24945404200116172,133.18709929198667,0.49944029199832585,133.43708504199458,0.9498207919968991,133.88746562499728,,0.9494540420011617,133.8874668339995,0.838867592897744,1.7883216348989057,134.725976583999,delayed,1.192750000001979,134.13040287498734,,left,left,0.2474200829892652,1,132.796781291996,134.725976583999,1.9291952920029871,main,3
54,2,13,5,active,face_present,face_present,fpa08.png,face,meaningful,frequent,,left,top,standard,-0.18742277091395051,std.wav,0.05270908300008159,134.92333245898772,0.24972470800275914,135.12034845899325,0.49130233300093096,135.36192533400026,0.9497732080053538,135.82039620899013,,0.9497247080027591,135.8203977499943,0.8281373069288633,1.7778620149316224,136.64883249999548,immediate,0.4695209579949733,135.3401460419991,,left,right,0.09431433399731759,0,134.72613045899197,136.64883249999548,1.9227020410035038,main,3
55,2,13,6,active,face_present,face_present,fpa07.png,face,meaningful,frequent,,left,top,standard,-0.2115315464031482,std.wav,0.028854415999376215,136.81622024999524,0.24178437500086147,137.02914995899482,0.4913442499964731,137.2787102500006,0.9424181659996975,137.72978324998985,,0.9417843750008614,137.72978441699524,0.27308384754500803,1.2148682225458693,138.0032127089944,immediate,0.6939363330020569,137.481303499997,,left,left,0.3276328329957323,1,136.6489995419979,138.0032127089944,1.3542131669964874,main,3
56,2,13,7,active,face_present,face_present,fpa15.png,face,meaningful,frequent,,left,bottom,standard,0.14698168349351243,std.wav,0.3871435000037309,138.53257641699747,0.24190283298958093,138.3873364589963,0.49158862499461975,138.6370218749944,0.9420372500026133,139.08746991699445,,0.9419028329895809,139.0874709589989,0.6153466003932547,1.5572494333828355,139.70305024999834,delayed,1.212417666989495,139.35785999998916,,left,left,0.34538183400582056,1,138.00336929199693,139.70305024999834,1.6996809580014087,main,3
57,2,13,8,active,face_present,face_absent,faa15.png,face,ambiguous,rare,,right,bottom,standard,0.02420013171648222,std.wav,0.2648587919975398,140.11058029199194,0.24973379200673662,140.0954560419923,0.49147070800245274,140.33719241699146,0.9497977919963887,140.7955196249968,,0.9497337920067366,140.79552112499368,0.7224146682385049,1.6721484602452414,141.51789729199663,immediate,0.6865232499985723,140.53225029198802,,right,right,0.31122429099923465,1,139.70319949999976,141.51789729199663,1.8146977919968776,main,3
58,2,13,9,active,face_present,face_present,fpa04.png,face,meaningful,frequent,,left,bottom,standard,0.06021516440799013,std.wav,0.3010671660013031,141.96348574999138,0.24964912500581704,141.9120683749934,0.4999182909959927,142.16233783398638,0.9499108330055606,142.61232999998902,,0.949649125005817,142.61233150000044,0.6650490460572086,1.6146981710630257,143.27735966698674,immediate,0.6329427909950027,142.29536470898893,,left,left,0.2581603750004433,1,141.5180826249998,143.27735966698674,1.759277041986934,main,3
59,2,13,10,active,face_present,face_present,fpa12.png,face,meaningful,frequent,,left,top,standard,-0.017275005327798743,std.wav,0.2233821249974426,143.64411804199335,0.2493934999947669,143.67012912499194,0.49115774998790585,143.91189358399424,0.9499655839899788,144.37070158399,,0.9493934999947669,144.37070274999132,0.6109627570384777,1.5603562570332445,144.98193858399463,delayed,1.2837488339864649,144.70449358399492,,left,left,0.23363716699532233,1,143.27752783399774,144.98193858399463,1.704410749996896,main,3
60,2,13,11,active,face_present,face_present,fpa25.png,face,meaningful,frequent,,left,top,standard,0.05597116558365961,std.wav,0.2968505830067443,145.41761441699055,0.24961749999783933,145.3703819589864,0.4995765420026146,145.62034045899054,0.9498252500052331,146.07058870900073,,0.9496174999978393,146.0705899589957,0.2359855904946061,1.1856030904924455,146.307169666994,delayed,1.1050859579991084,146.225858958991,,left,left,0.3111083330004476,1,144.98209954198683,146.307169666994,1.325070125007187,main,3
61,2,13,12,active,face_present,face_present,fpa29.png,face,meaningful,frequent,,left,bottom,blank,,,,,0.249854082998354,146.56205562499235,0.49161416600691155,146.80381545898854,0.9499243330064928,147.26212479198875,,0.9498540829983539,147.2621258339932,0.6990002295955706,1.6488543125939246,147.96186649998708,delayed,1.174780000001192,147.4869897919998,,left,left,0.3660635000123875,1,146.30734662499162,147.96186649998708,1.654519874995458,main,3
62,2,13,13,active,face_present,face_present,fpa21.png,face,meaningful,frequent,,left,bottom,standard,0.0783264349833745,std.wav,0.3189557920122752,148.43966004200047,0.24198679201072082,148.36269104199891,0.49135450000176206,148.6120582089934,0.9427461250015767,149.0634496249986,,0.9419867920107208,149.0634506669885,0.8426416392588787,1.7846284312695995,149.90593458399235,immediate,0.6744568750000326,148.79516433399112,,left,left,0.2857454999902984,1,147.96200237498851,149.90593458399235,1.9439322090038331,main,3
63,2,13,14,active,face_present,face_present,fpa27.png,face,meaningful,frequent,,left,bottom,deviant,-0.12299536261551251,deviant.wav,0.11769654200179502,150.18845241698727,0.24962991700158454,150.32038533399464,0.49957391699717846,150.57032975000038,0.95042100000137,151.02117624999664,,0.9496299170015845,151.02117737499066,0.8025088360293049,1.7521387530308894,151.82367149999482,immediate,0.6817010419908911,150.75245979199826,,left,left,0.30672312500246335,1,149.90609791698807,151.82367149999482,1.9175735830067424,main,3
64,2,13,15,active,face_present,face_present,fpa23.png,face,meaningful,frequent,,left,bottom,standard,-0.0927230629652305,std.wav,0.14789858300355263,152.13527154199255,0.2499531659996137,152.23732637499052,0.4996741250070045,152.4870473339979,0.9503214580036001,152.93769399999292,,0.9499531659996137,152.93769529199926,0.817573459158977,1.7675266251585906,153.75524779199623,delayed,1.1843009580043145,153.17168891699112,,left,left,0.3030905000050552,1,151.8238886249892,153.75524779199623,1.931359167007031,main,3
65,2,13,16,active,face_present,face_present,fpa17.png,face,meaningful,frequent,,left,bottom,standard,0.055694543100018534,std.wav,0.2962202499911655,154.21695620899845,0.24173358299594838,154.16247016699344,0.49127170800056774,154.41200799999933,0.9424324169958709,154.86316820899083,,0.9417335829959483,154.86316937499214,0.4970723232698032,1.4388059062657517,155.36006004198862,immediate,0.6705183329904685,154.5912568749918,,left,left,0.28190299999550916,1,153.75546704199223,155.36006004198862,1.6045929999963846,main,3
66,2,13,17,active,face_present,face_present,fpa20.png,face,meaningful,frequent,,left,top,standard,0.1248677839442977,std.wav,0.36515762499766424,155.8857866670005,0.24969083300675265,155.7703204999998,0.49971645799814723,156.02034608399845,0.9503448330069659,156.4709739589889,,0.9496908330067526,156.47097516698705,0.6946698043839219,1.6443606373906745,157.1657742499956,immediate,0.7533764580002753,156.27400879199558,,left,left,0.3569788329914445,1,155.36021829200035,157.1657742499956,1.8055559579952387,main,3
67,2,13,18,active,face_present,face_present,fpa25.png,face,meaningful,frequent,,left,top,blank,,,,,0.24895654201100115,157.42026033399452,0.4990573750110343,157.67036070898757,0.9495280000119237,158.12083137499576,,0.9489565420110011,158.1208325419866,0.3493695272898383,1.2983260693008394,158.46969904199068,immediate,0.6915635840123286,157.86287304198777,,left,left,0.2959235419984907,1,157.16593716699572,158.46969904199068,1.3037618749949615,main,3
68,2,13,19,active,face_present,face_present,fpa26.png,face,meaningful,frequent,,left,bottom,standard,-0.01899561349661938,std.wav,0.22127175000787247,158.8501567919884,0.24187145799805876,158.8707558749884,0.49144216600689106,159.120326749995,0.9423653749981895,159.57124945899704,,0.9418714579980587,159.57125062499836,0.23388797086805566,1.1757594288661144,159.80533820900018,delayed,1.0886427910008933,159.71753587499552,,left,left,0.31147879200580064,1,158.46984895899368,159.80533820900018,1.3354892500065034,main,3
69,2,13,20,active,face_present,face_absent,faa17.png,face,ambiguous,rare,,right,bottom,standard,0.08658988188934902,std.wav,0.32719462500244845,160.29764808400068,0.24184204199991655,160.21229587499693,0.4915468749968568,160.46200062498974,0.9421876669948688,160.9126409169985,,0.9418420419999165,160.91264208398934,0.39029032089485144,1.3321323628947679,161.3028469169949,delayed,1.0907727919984609,161.06123683399346,,right,right,0.35290962499857415,1,159.80550883398973,161.3028469169949,1.497338083005161,main,3
70,2,13,21,baseline,face_present,,,,,baseline,,,,blank,,,,,,,,,,,161.31204449999495,,,1.5769044090821636,,,,,,,,,,,161.30301695899107,162.8889939590008,1.5859770000097342,main,3
71,2,13,22,baseline,face_present,,,,,baseline,,,,blank,,,,,,,,,,,162.89584141699015,,,0.9689836431046163,,,,,,,,,,,162.889088291995,163.8648871669866,0.9757988749915967,main,3
72,2,13,23,baseline,face_present,,,,,baseline,,,,blank,,,,,,,,,,,163.87007791698852,,,1.1126795908745366,,,,,,,,,,,163.86503295898729,164.98281020899594,1.1177772500086576,main,3
73,2,5,1,active,face_present,face_present,fpa15.png,face,meaningful,frequent,,right,bottom,standard,-0.1564617337173045,std.wav,0.0836060840083519,168.96272858399607,0.2418080000061309,169.1209303749929,0.4912214590003714,169.37034341698745,0.9426515420054784,169.82177333399886,,0.9418080000061309,169.82177445899288,0.21113008610357165,1.1529380861097025,170.03271241699986,delayed,1.0894844170106808,169.9686163749866,,right,right,0.39390854199882597,1,168.71620312499,170.03271241699986,1.3165092920098687,main,4
74,2,5,2,active,face_present,face_present,fpa10.png,face,meaningful,frequent,,right,bottom,standard,-0.08353195007578246,std.wav,0.15716154099209234,170.35253608399944,0.24991233299078885,170.44528670900036,0.4917181659984635,170.68709254199348,0.9506439580000006,171.14601770899026,,0.9499123329907888,171.14601887499157,0.5114047691820083,1.461317102172797,171.6572847089992,immediate,0.6959283749893075,170.8913047919923,,right,right,0.29857645800802857,1,170.032870333991,171.6572847089992,1.6244143750082003,main,4
75,2,5,3,active,face_present,face_absent,faa09.png,face,ambiguous,rare,,left,bottom,standard,-0.04680916028103521,std.wav,0.19365758400817867,172.01437816699035,0.24986504200205673,172.07058554199466,0.4913792500010459,172.3120996249927,0.9507337920076679,172.77145333398948,,0.9498650420020567,172.77145437498984,0.3693741315711195,1.319239173573176,173.1401429589896,delayed,1.1757542090053903,172.99648354199599,,left,left,0.26427370800229255,1,171.6574434590002,173.1401429589896,1.482699499989394,main,4
76,2,5,4,active,face_present,face_present,fpa04.png,face,meaningful,frequent,,right,top,blank,,,,,0.24199454199697357,173.3870444589993,0.49194404200534336,173.6369937499985,0.942616917003761,174.08766612499312,,0.9419945419969735,174.08766724998713,0.5659687350275503,1.507963277024524,174.6531350419973,delayed,1.089088749999064,174.2341461670003,,right,right,0.3806942500086734,1,173.1402976669924,174.6531350419973,1.5128373750048922,main,4
77,2,5,5,active,face_present,face_absent,faa21.png,face,ambiguous,rare,,left,bottom,standard,-0.0781955931588788,std.wav,0.16282662500452716,174.97515366699372,0.24963666700932663,175.06196354200074,0.4914664170064498,175.30379324998648,0.9499448749993462,175.76227124998695,,0.9496366670093266,175.76227241699235,0.38828289510318165,1.3379195621125082,176.15089312499913,immediate,0.6704650419997051,175.48279458399338,,left,left,0.27377833299397025,1,174.6532921249891,176.15089312499913,1.497601000010036,main,4
78,2,5,6,active,face_present,face_present,fpa18.png,face,meaningful,frequent,,right,top,standard,-0.09711290853918264,std.wav,0.1438486660044873,176.4559910419921,0.2417664579988923,176.55390854198777,0.4834439160040347,176.79558604198974,0.9425968330033356,177.25473858400073,,0.9417664579988922,177.25473970899475,0.3985069241951667,1.340273382194059,177.65287837499636,immediate,0.6726997910009231,176.98484387499047,,right,right,0.2837190830032341,1,176.15105924999807,177.65287837499636,1.501819124998292,main,4
79,2,5,7,active,face_present,face_present,fpa06.png,face,meaningful,frequent,,right,top,standard,-0.03226165081772797,std.wav,0.20811283300281502,178.02009270898998,0.24199691700050607,178.05397641699528,0.49167762500292156,178.30365720899135,0.9427682079985971,178.7547473339946,,0.941996917000506,178.75474845898862,0.8264830339616045,1.7684799509621105,179.58064929199463,immediate,0.7065072499972302,178.5184894589911,,right,right,0.317693250006414,1,177.65306637498725,179.58064929199463,1.9275829170073848,main,4
80,2,5,8,active,face_present,face_absent,faa05.png,face,ambiguous,rare,,left,top,standard,-0.052614482228999504,std.wav,0.18745462500373833,179.93291145899275,0.24212912500661332,179.98758545899182,0.4915556670021033,180.23701162499492,0.9426377500058152,180.68809329198848,,0.9421291250066133,180.68809441699705,0.7905361472576502,1.7326652722642635,181.4791131249949,immediate,0.6904883329989389,180.43594779199339,,left,left,0.3011938330018893,1,179.58081924999715,181.4791131249949,1.898293874997762,main,4
81,2,5,9,active,face_present,face_present,fpa02.png,face,meaningful,frequent,,right,top,standard,0.036205517819062505,std.wav,0.27646316699974705,181.92225499999768,0.2495522079989314,181.8953445419902,0.4914890420041047,182.13728129198716,0.9496017920027953,182.5953932919947,,0.9495522079989314,182.5953944590001,0.5538854611206949,1.5034376691196263,183.1494864999986,delayed,1.1891771249938756,182.834977874998,,right,right,0.26918175000173505,1,181.47929091699189,183.1494864999986,1.6701955830067163,main,4
82,2,5,10,active,face_present,face_present,fpa30.png,face,meaningful,frequent,,right,bottom,standard,0.06111783822939487,std.wav,0.30213495799398515,183.6144994169881,0.249646041993401,183.5620111249882,0.4913580419961363,183.80372258399439,0.9497687919938471,184.2621330839902,,0.949646041993401,184.2621343339997,0.3064112116708928,1.2560572536642938,184.56935345899547,immediate,0.8014997079881141,184.11386679198768,,right,right,0.40454995799518656,1,183.14964329199574,184.56935345899547,1.419710166999721,main,4
83,2,5,11,active,face_present,face_present,fpa12.png,face,meaningful,frequent,,right,top,standard,-0.22849132996418042,std.wav,0.012381166001432575,184.74081237499195,0.25024529099755455,184.97867587499786,0.4920245410030475,185.2204554589989,0.9506463330035331,185.67907679198834,,0.9502452909975545,185.67907795899373,0.6113520891071589,1.5615973801047134,186.2905147499987,delayed,1.1426009999995586,185.87104229199758,,right,right,0.3607476670003962,1,184.56952266699227,186.2905147499987,1.720992083006422,main,4
84,2,5,12,active,face_present,face_present,fpa11.png,face,meaningful,frequent,,right,bottom,standard,-0.11082802585068532,std.wav,0.13006804100587033,186.5841584999871,0.24958645799779333,186.7036767499958,0.499568208004348,186.95365837498684,0.9505804999935208,187.4046702499909,,0.9495864579977933,187.40467141699628,0.7772243168356618,1.7268107748334551,188.18109116698906,immediate,0.6983011660049669,187.1523932919954,,right,right,0.3018274579953868,1,186.29068108399224,188.18109116698906,1.890410082996823,main,4
85,2,5,13,active,face_present,face_present,fpa07.png,face,meaningful,frequent,,right,top,blank,,,,,0.2502648749941727,188.43699204199947,0.5002423340047244,188.6869692499895,0.9513029999943683,189.13802949999808,,0.9502648749941727,189.1380307090003,0.649134174091264,1.5993990490854366,189.78622808399086,delayed,1.0979238750005607,189.28466058398772,,right,right,0.3743645420036046,1,188.18126833399583,189.78622808399086,1.6049597499950323,main,4
86,2,5,14,active,face_present,face_present,fpa13.png,face,meaningful,frequent,,right,top,standard,-0.10158195303983134,std.wav,0.13940983400971163,190.08481324999593,0.24203550000675023,190.18743841699325,0.4915738340059761,190.4369764169969,0.9428215420048218,190.8882239999948,,0.9420355000067502,190.8882251670002,0.4282543740093533,1.3702898740161036,191.31624558399199,immediate,0.654219167001429,190.5996241249959,,right,right,0.26493137500074226,1,189.78638270898955,191.31624558399199,1.5298628750024363,main,4
87,2,5,15,active,face_present,face_present,fpa04.png,face,meaningful,frequent,,right,top,standard,-0.10743378614815072,std.wav,0.1330291250051232,191.6117577089899,0.24212641701160464,191.72085479198722,0.4916046250000363,191.97033254199778,0.9431669580080779,192.42189462498936,,0.9421264170116046,192.42189583399158,0.8445073968322554,1.78663381384386,193.26621674999478,delayed,1.1093550420046085,192.58809333399404,,right,right,0.2134256659919629,1,191.3164749169955,193.26621674999478,1.9497418329992797,main,4
88,2,5,16,active,face_present,face_present,fpa07.png,face,meaningful,frequent,,right,top,standard,0.05210386469889178,std.wav,0.2921898750064429,193.72143087499717,0.24940354200953152,193.67864470899804,0.49110895801277366,193.92034979199525,0.9499350000114646,194.37917591699807,,0.9494035420095315,194.37917699999525,0.4071678029547172,1.3565713449642487,194.78657787499833,immediate,0.6976869170030113,194.12692995899124,,right,right,0.3016851249994943,1,193.26639158399485,194.78657787499833,1.5201862910034833,main,4
89,2,5,17,active,face_present,face_present,fpa27.png,face,meaningful,frequent,,right,bottom,standard,0.11674036451021896,std.wav,0.3574679170124,195.32796104199952,0.2497938340093242,195.2202870839974,0.49166154200793244,195.4621550419979,0.9506737090123352,195.92116608399374,,0.9497938340093242,195.92116729199188,0.722310984903278,1.6721048189126022,196.64327541699458,delayed,1.2607951670070179,196.23130099999253,,right,right,0.3529956659913296,1,194.7868331669888,196.64327541699458,1.8564422500057844,main,4
90,2,5,18,active,face_present,face_absent,faa30.png,face,ambiguous,rare,,left,bottom,deviant,-0.1736575283795519,deviant.wav,0.06712800000968855,196.87106962499092,0.24968662500032224,197.0536270839948,0.49105812500056345,197.29499899999064,0.9500454580120277,197.75398608398973,,0.9496866250003222,197.75398729198787,0.7854218211163644,1.7351084461166866,198.53941658399708,immediate,0.6442041670088656,197.44814845899236,,left,left,0.24726950000331271,1,196.64343879198714,198.53941658399708,1.895977792009944,main,4
91,2,5,19,active,face_present,face_present,fpa14.png,face,meaningful,frequent,,right,top,standard,0.15646315429140512,std.wav,0.3972832920117071,199.1263419589959,0.24956904200371355,198.97862762499426,0.49959145800676197,199.22864991700044,0.9501154170138761,199.67917358399427,,0.9495690420037135,199.67917466699146,0.6058371739132165,1.55540621591693,200.28514479199657,delayed,1.1178832080040593,199.84694970899727,,right,right,0.2995450000016717,1,198.5396264999872,200.28514479199657,1.7455182920093648,main,4
92,2,5,20,active,face_present,face_present,fpa24.png,face,meaningful,frequent,,right,top,deviant,-0.01308018760009605,deviant.wav,0.22765666600025725,200.697996124989,0.24203816600493155,200.7123774169886,0.4836249580112053,200.95396420899488,0.942425291010295,201.41276387499238,,0.9420381660049315,201.41276491699682,0.2718826314894774,1.2139207974944088,201.6847671669966,delayed,1.1310192910023034,201.60136724999757,,right,right,0.21868387500580866,1,200.28532137499133,201.6847671669966,1.399445792005281,main,4
93,2,5,21,baseline,face_present,,,,,baseline,,,,blank,,,,,,,,,,,201.6866817919945,,,0.9979947980347168,,,,,,,,,,,201.68492166699434,202.68474337499356,0.9998217079992173,main,4
94,2,5,22,baseline,face_present,,,,,baseline,,,,blank,,,,,,,,,,,202.68671829199593,,,0.9381008736173773,,,,,,,,,,,202.68489599999157,203.6248480840004,0.9399520840088371,main,4
95,2,5,23,baseline,face_present,,,,,baseline,,,,blank,,,,,,,,,,,203.62892854199163,,,1.4889453797990464,,,,,,,,,,,203.62496774998726,205.11795587498636,1.4929881249991013,main,4
96,2,11,1,active,face_absent,face_absent,faa28.png,face,ambiguous,frequent,,left,top,standard,0.015533684757173205,std.wav,0.25602091700420715,221.69345058398903,0.24953437500516884,221.68696449999698,0.4995239170093555,221.93695370899513,0.9504154590104008,222.38784479199967,,0.9495343750051688,222.38784604199464,0.7760123768830323,1.725546751888201,223.16323166700022,delayed,1.1188073340017581,222.55624674999854,,left,left,0.3501443749992177,1,221.25065670898766,223.16323166700022,1.9125749580125557,main,5
97,2,11,2,active,face_absent,face_absent,faa11.png,face,ambiguous,frequent,,left,bottom,standard,0.13150094401029133,std.wav,0.37212883299798705,223.71777854199172,0.2495931669982383,223.59524291699927,0.49559979198966175,223.84124933400017,0.9505934999906458,224.29624279199925,,0.9495931669982383,224.2962442499993,0.394651734780481,1.3442449017787192,224.690033958992,delayed,1.2363205829897197,224.58197929199378,,left,left,0.3269667909917189,1,223.16345687498688,224.690033958992,1.5265770840051118,main,5
98,2,11,3,active,face_absent,face_absent,faa16.png,face,ambiguous,frequent,,left,top,standard,-0.05970603603468255,std.wav,0.18065291599486955,225.05535529198823,0.24970920800114982,225.1244110839907,0.49149629099701997,225.36619841698848,0.9502561659901403,225.82495787499647,,0.9497092080011498,225.8249590419873,0.4423494892404668,1.3920586972416165,226.26754720899044,delayed,1.1182406659936532,225.99295079198782,,left,left,0.2926061249891063,1,224.69019837499945,226.26754720899044,1.5773488339909818,main,5
99,2,11,4,active,face_absent,face_absent,faa02.png,face,ambiguous,frequent,,left,bottom,standard,-0.04222990842964003,std.wav,0.197826375006116,226.6474296249944,0.24202666700875852,226.69162991699704,0.49146883400680963,226.94107149999763,0.9423946250026347,227.39199749998807,,0.9420266670087585,227.3919990419963,0.279415980444594,1.2214426474533524,227.67201970898896,delayed,1.1106486250064336,227.56025895899802,,left,left,0.3653780829918105,1,226.2677118339925,227.67201970898896,1.404307874996448,main,5
100,2,11,5,active,face_absent,face_absent,faa12.png,face,ambiguous,frequent,,left,top,standard,0.06979579024371435,std.wav,0.31046470800356474,228.16830291699443,0.24180495800101198,228.0996432089887,0.4915666250017239,228.3494050839945,0.9428857079910813,228.8007234169927,,0.9418049580010119,228.80072445899714,0.5915254682827925,1.5333304262838046,229.39192349999212,delayed,1.1108570420037722,228.968705124993,,left,left,0.32986595899274107,1,227.6721974999964,229.39192349999212,1.7197259999957168,main,5
101,2,11,6,active,face_absent,face_absent,faa12.png,face,ambiguous,frequent,,left,bottom,standard,0.05069918652678168,std.wav,0.29137350000382867,229.8662806249922,0.24951158300973475,229.82441916699463,0.49948254199989606,230.0743897499924,0.9504682920087362,230.5253750839911,,0.9495115830097347,230.52537620899966,0.7584380394632932,1.707949622473028,231.28379066698835,delayed,1.139470167006948,230.71438874999876,,left,left,0.3165151249995688,1,229.39210166699195,231.28379066698835,1.8916889999964042,main,5
102,2,11,7,active,face_absent,face_absent,faa07.png,face,ambiguous,frequent,,left,bottom,standard,-0.01824255084406204,std.wav,0.2221895420079818,231.6886719999893,0.24963241700606886,231.7161142499972,0.4995811249973485,231.96606295899255,0.9503484169981675,232.41683012498834,,0.9496324170060688,232.41683133399056,0.3960439298620717,1.3456763468681405,232.8124403339898,immediate,0.6754815419990337,232.14196674998675,,left,left,0.25778670799627434,1,231.28395174999605,232.8124403339898,1.5284885839937488,main,5
103,2,11,8,active,face_absent,face_present,fpa25.png,face,meaningful,rare,,right,top,deviant,-0.04280343759749439,deviant.wav,0.19794795900816098,233.19777449998946,0.2496029590110993,233.24942904199997,0.4916151670040563,233.49144137499388,0.9496392090077279,233.94946558399533,,0.9496029590110993,233.94946699999855,0.8331837176285475,1.7827866766396467,234.78350274999684,delayed,1.208009709007456,234.20784604198707,,right,left,0.19341074999829289,0,232.81262733398762,234.78350274999684,1.9708754160092212,main,5
104,2,11,9,active,face_absent,face_absent,faa05.png,face,ambiguous,frequent,,left,bottom,standard,-0.10772555305039483,std.wav,0.13263545799418353,235.09938004199648,0.24942229100270197,235.2161661249993,0.5994052079913672,235.5661495839886,0.9503727909905137,235.91711616699467,,0.9494222910027019,235.91711733400007,0.24142244106147256,1.1908447320641744,236.15836449999188,immediate,0.5853492909955094,235.55209604199626,,left,left,0.1678470839979127,1,234.78366962498694,236.15836449999188,1.3746948750049341,main,5
105,2,11,10,active,face_absent,face_present,fpa09.png,face,meaningful,rare,,right,bottom,standard,-0.17709478495173803,std.wav,0.06302899999718647,236.40421333399718,0.2498788329976378,236.59106208400044,0.4998948330030544,236.8410780839913,0.950817791002919,237.29200074999244,,0.9498788329976378,237.2920018339937,0.6513742297606167,1.6012530627582544,237.94316429199534,delayed,1.1188232080021407,237.46001362499373,,right,right,0.29172237499733455,1,236.15853575000074,237.94316429199534,1.784628541994607,main,5
106,2,11,11,active,face_absent,face_present,fpa08.png,face,meaningful,rare,,right,bottom,standard,0.05598925940053123,std.wav,0.2969327089958824,238.42174649999652,0.24190749999252148,238.36672212499252,0.49132366699632257,238.6161374589865,0.9428953750029905,239.06770916699315,,0.9419074999925214,239.06771029198717,0.24213604159410723,1.1840435415866286,239.3097495839902,immediate,0.7165198339935159,238.8413375839882,,right,right,0.30606316700868774,1,237.9433340839896,239.3097495839902,1.3664155000005849,main,5
107,2,11,12,active,face_absent,face_absent,faa12.png,face,ambiguous,frequent,,left,top,standard,-0.027619239219807162,std.wav,0.21326020800916012,239.70449954200012,0.24169004100258462,239.7329289999907,0.4831059999996796,239.97434483398683,0.9420972500083735,240.43333612498827,,0.9416900410025846,240.43333729199367,0.8055959099656014,1.747285950968186,241.23871583399887,immediate,0.6991816250083502,240.19042370899115,,left,left,0.288779209004133,1,239.3099326669908,241.23871583399887,1.9287831670080777,main,5
108,2,11,13,active,face_absent,face_present,fpa10.png,face,meaningful,rare,,right,bottom,standard,0.016905047460661626,std.wav,0.2572015000041574,241.6820488749945,0.24963479199504945,241.6744826669892,0.4914394999941578,241.9162867499981,0.9501293750072364,242.3749769999995,,0.9496347919950494,242.37497816699033,0.5453243515989065,1.494959143593956,242.92029916698812,immediate,0.6728908749937546,242.0977412499924,,right,right,0.2550439580081729,1,241.2389019169932,242.92029916698812,1.681397249994916,main,5
109,2,11,14,active,face_absent,face_absent,faa11.png,face,ambiguous,frequent,,left,top,deviant,-0.01045226080909728,deviant.wav,0.2299019999918528,243.33777874999214,0.24213074998988304,243.35000708399457,0.6749882500007516,243.7828648339928,0.9426812500023516,244.0505571669928,,0.942130749989883,244.05055837499094,0.530159597246955,1.472290347236838,244.58113033398695,immediate,0.6617303749953862,243.7696097089938,,left,left,0.23065229201165494,1,242.92049104199396,244.58113033398695,1.660639291992993,main,5
110,2,11,15,active,face_absent,face_absent,faa27.png,face,ambiguous,frequent,,left,top,standard,-0.09497234087818165,std.wav,0.14612283300084528,244.9125173749926,0.2419368749979185,245.00833091700042,0.48334524998790585,245.24973924999358,0.9426661659963429,245.70905974999187,,0.9419368749979184,245.70906091699726,0.32709467186814156,1.26903154686606,246.0355717499915,immediate,0.7333846249966882,245.49978174999706,,left,left,0.3233067909895908,1,244.58131008398777,246.0355717499915,1.454261666003731,main,5
111,2,11,16,active,face_absent,face_absent,faa22.png,face,ambiguous,frequent,,left,bottom,standard,-0.03458701235602282,std.wav,0.20596670798840933,246.42216233399813,0.2499454579956364,246.46614091699303,0.4917840419948334,246.7079793749872,0.9506942919979338,247.16688895899279,,0.9499454579956363,247.1668899590004,0.43062799368722626,1.3805734516828627,247.59686683399195,delayed,1.1182662079954753,247.33446916699177,,left,left,0.34234083400224335,1,246.03574974999356,247.59686683399195,1.561117083998397,main,5
112,2,11,17,active,face_absent,face_absent,faa13.png,face,ambiguous,frequent,,left,bottom,standard,0.12456147361960834,std.wav,0.36474541600910015,248.1476092919911,0.24190700000326615,248.02477141699637,0.49158854100096505,248.27445224999974,0.9421067500079516,248.72497037499852,,0.9419070000032661,248.72497158400074,0.898612861451731,1.8405198614549971,249.62374433399236,delayed,1.237747125007445,249.0206213749916,,left,left,0.3347799580078572,1,247.59705733398732,249.62374433399236,2.0266870000050403,main,5
113,2,11,18,active,face_absent,face_absent,faa02.png,face,ambiguous,frequent,,left,top,standard,-0.11333231940760582,std.wav,0.12710625000181608,249.9353428339964,0.2494395420071669,250.05767624999862,0.49953200000163633,250.30776825000066,0.9498592920135707,250.75809529199614,,0.9494395420071668,250.75809645898698,0.2662746636686355,1.2157142056758024,251.02397887498955,immediate,0.8631478340103058,250.6713875419955,,left,left,0.4238587500003632,1,249.62393291699118,251.02397887498955,1.4000459579983726,main,5
114,2,11,19,active,face_absent,face_absent,faa22.png,face,ambiguous,frequent,,left,top,blank,,,,,0.24983549999888055,251.28275337499508,0.49984250000852626,251.53276016699965,0.9504319999978179,251.9833493749902,,0.9498354999988805,251.98335058399243,0.4094477939136534,1.3592832939125339,252.39236779199564,immediate,0.8371277910046047,251.87004854199768,,left,left,0.3977060830075061,1,251.0241605839983,252.39236779199564,1.3682072079973295,main,5
115,2,11,20,active,face_absent,face_absent,faa24.png,face,ambiguous,frequent,,left,top,blank,,,,,0.24233941599959508,252.64147866699204,0.48372799999197014,252.88286712499394,0.943191290993127,253.3423299999995,,0.942339415999595,253.34233120898716,0.6141544489469865,1.5564938649465816,253.9563429169939,immediate,0.7849757079966366,253.18411787498917,,left,left,0.35291320900432765,1,252.39251083398995,253.9563429169939,1.5638320830039447,main,5
116,2,11,21,baseline,face_absent,,,,,baseline,,,,blank,,,,,,,,,,,253.95823387498967,,,1.2576669290523046,,,,,,,,,,,253.95651208399795,255.2159752499865,1.2594631659885636,main,5
117,2,11,22,baseline,face_absent,,,,,baseline,,,,blank,,,,,,,,,,,255.22499154199613,,,1.315272099582494,,,,,,,,,,,255.21614441699057,256.5403514169884,1.3242069999978412,main,5
118,2,11,23,baseline,face_absent,,,,,baseline,,,,blank,,,,,,,,,,,256.5496450840001,,,1.3281702861988154,,,,,,,,,,,256.5404728339927,257.8778640419914,1.337391207998735,main,5
119,2,2,1,active,face_present,face_present,fpa25.png,face,meaningful,frequent,,left,bottom,standard,0.06627891540367042,std.wav,0.30643854099616874,262.31455629199627,0.24967520800419152,262.2577930839907,0.4911045830085641,262.4992227499897,0.9505544999992708,262.9586722919921,,0.9496752080041915,262.95867374999216,0.3080654111993509,1.2577406192035423,263.26661966698884,delayed,1.1399652079999214,263.1480904589989,,left,left,0.3028144580021035,1,261.7981209589925,263.26661966698884,1.468498707996332,main,6
120,2,2,2,active,face_present,face_present,fpa17.png,face,meaningful,frequent,,left,bottom,blank,,,,,0.24196337501052767,263.5164028750005,0.49158454200369306,263.7660238339886,0.9420907090097899,264.2165298339969,,0.9419633750105276,264.21653133399377,0.5936983890991332,1.5356617641096608,264.81044004199794,immediate,0.7026449999975739,263.97708666700055,,left,left,0.2712004169879947,1,263.2667996669916,264.81044004199794,1.5436403750063619,main,6
121,2,2,3,active,face_present,face_present,fpa05.png,face,meaningful,frequent,,left,top,standard,-0.10353651837042724,std.wav,0.1374681250017602,265.15414045899524,0.24944129199138843,265.26611312499153,0.4910076669912087,265.50767933399766,0.9502023329987423,265.96687404198747,,0.9494412919913884,265.96687520899286,0.29607836212995264,1.245519654121341,266.26269095898897,immediate,0.7165922499989392,265.7332679169922,,left,left,0.2774214580131229,1,264.810587999993,266.26269095898897,1.4521029589959653,main,6
122,2,2,4,active,face_present,face_present,fpa07.png,face,meaningful,frequent,,left,bottom,deviant,-0.08093861257214899,deviant.wav,0.1601302910130471,266.62627099998645,0.24996912501228508,266.7161093339964,0.49139820800337475,266.95753874999355,0.9504644160042517,267.4166047089966,,0.949969125012285,267.41660616699664,0.8007939935495192,1.7507631185618042,268.21746112499386,delayed,1.1401208330062218,267.60627150000073,,left,left,0.28251029099919833,1,266.26286245899973,268.21746112499386,1.9545986659941263,main,6
123,2,2,5,active,face_present,face_present,fpa22.png,face,meaningful,frequent,,left,bottom,deviant,-0.030764313991993336,deviant.wav,0.2097160000121221,268.634564958993,0.2495989170129178,268.6744472499995,0.4914365840086248,268.9162851250003,0.9504366670007585,269.3752852089965,,0.9495989170129178,269.37528670899337,0.5944395019828359,1.5440384189957537,269.96943991699663,delayed,1.1398162500117905,269.5646722919919,,left,left,0.3830976669996744,1,268.2176572919998,269.96943991699663,1.7517826249968493,main,6
124,2,2,6,active,face_present,face_absent,faa21.png,face,ambiguous,rare,,right,bottom,standard,-0.1350399882744881,std.wav,0.10527691700553987,270.27998520899564,0.24975054200331215,270.42445841699373,0.4914714170008665,270.66617920898716,0.9499718330043834,271.1246792499878,,0.9497505420033121,271.1246804169932,0.7030602955345593,1.6528108375378714,271.82780258399725,immediate,0.7732867920130957,270.94799824999063,,right,right,0.33403933299996424,1,269.9696221669874,271.82780258399725,1.8581804170098621,main,6
125,2,2,7,active,face_present,face_present,fpa07.png,face,meaningful,frequent,,left,bottom,standard,-0.2374034868473031,std.wav,0.0031717079982627183,272.03631716698874,0.2496447080047801,272.2827899589902,0.4996528330084402,272.532798041997,0.9503610000101617,272.983505583994,,0.9496447080047801,272.98350666699116,0.7205851823652014,1.6702298903699815,273.7038122919912,delayed,1.2825217500067083,273.31567720900057,,left,left,0.2755565419938648,1,271.8279920419882,273.7038122919912,1.8758202500030166,main,6
126,2,2,8,active,face_present,face_present,fpa02.png,face,meaningful,frequent,,left,bottom,standard,-0.02020516521718524,std.wav,0.22030833300959785,274.128459708998,0.24963079100416508,274.15778191699064,0.6830153330083704,274.5911661669961,0.9505596250091912,274.8587102499878,,0.949630791004165,274.85871145899,0.32787580470859146,1.2775065957127565,275.18604183399293,immediate,0.669078791004722,274.57723283399537,,left,left,0.22957924999354873,1,273.70397754199803,275.18604183399293,1.4820642919949023,main,6
127,2,2,9,active,face_present,face_absent,faa11.png,face,ambiguous,rare,,right,top,standard,0.05362784049771452,std.wav,0.29467566701350734,275.68611108399637,0.24964070800342597,275.64107674999104,0.49141354201128706,275.8828494169866,0.9506032920035068,276.34203866698954,,0.9496407080034259,276.34203983399493,0.7165793887064016,1.6662200967098275,277.05823679199966,delayed,1.1400475420086877,276.531492833994,,right,right,0.2642513750033686,1,275.1862265839882,277.05823679199966,1.8720102080114884,main,6
128,2,2,10,active,face_present,face_present,fpa30.png,face,meaningful,frequent,,left,top,standard,0.01086304941802435,std.wav,0.25182624999433756,277.5183453339996,0.24958416700246744,277.51610345899826,0.4912861670018174,277.7578052089957,0.9505224169988651,278.2170408749953,,0.9495841670024674,278.2170420420007,0.26977180983360594,1.2193559768360733,278.4862217919872,delayed,1.1399887919978937,278.4065151669929,,left,left,0.2474742909980705,1,277.0584194169933,278.4862217919872,1.4278023749939166,main,6
129,2,2,11,active,face_present,face_present,fpa12.png,face,meaningful,frequent,,left,top,standard,-0.08894214497011022,std.wav,0.15175312499923166,278.8429247919994,0.24199037499784026,278.93316124999546,0.4916011250024894,279.18277229199884,0.9420889999892097,279.63325987498683,,0.9419903749978402,279.6332611669932,0.46872947798387116,1.4107198529817113,280.101967124996,immediate,0.7430152919987449,279.4341898339917,,left,left,0.31108149999636225,1,278.48639237499447,280.101967124996,1.6155747500015423,main,6
130,2,2,12,active,face_present,face_present,fpa29.png,face,meaningful,frequent,,left,bottom,standard,-0.07781192577565088,std.wav,0.1625410419947002,280.4703591669968,0.249936958993203,280.5577539589867,0.49147383400122635,280.7992930420005,0.9507309170003282,281.258547541991,,0.949936958993203,281.25854874998913,0.8308118294165505,1.7807487884097535,282.08857962499314,immediate,0.8434991669928422,281.15131966699846,,left,left,0.4034797080093995,1,280.10216729198874,282.08857962499314,1.9864123330044094,main,6
131,2,2,13,active,face_present,face_present,fpa04.png,face,meaningful,frequent,,left,top,standard,0.017364454542037555,std.wav,0.2578656670084456,282.54981824998686,0.24916787500842474,282.5411209169979,0.4991322499990929,282.79108504198666,0.9500243330112426,283.24197691699374,,0.9491678750084247,283.24197829198965,0.41372020191098735,1.362888076919412,283.65547758399043,delayed,1.1393063330033328,283.4312704999902,,left,left,0.3170045000006212,1,282.0887910839956,283.65547758399043,1.5666864999948302,main,6
132,2,2,14,active,face_present,face_present,fpa24.png,face,meaningful,frequent,,left,top,standard,0.1551880398454275,std.wav,0.3953075000026729,284.25336399998923,0.24972341700049583,284.10778062499594,0.49128241700236686,284.34933924999496,0.9506524590105982,284.8087085419975,,0.9497234170004958,284.80870962499466,0.3164465607275623,1.2661699777280582,285.12461574999907,delayed,1.140307292007492,284.9983737500006,,left,left,0.4983500000089407,1,283.6557062089996,285.12461574999907,1.468909540999448,main,6
133,2,2,15,active,face_present,face_present,fpa17.png,face,meaningful,frequent,,left,top,standard,0.08380026298666593,std.wav,0.3244687080004951,285.6575357499969,0.24971137499960605,285.58277854199696,0.4996979999996256,285.8327649999992,0.9499128749885131,286.2829795419966,,0.949711374999606,286.28298070898745,0.783710305606897,1.733421680606503,287.06736687499506,immediate,,,,left,,,0,285.1247825839964,287.06736687499506,1.9425842909986386,main,6
134,2,2,16,active,face_present,face_present,fpa11.png,face,meaningful,frequent,,left,bottom,standard,-0.1704100740608816,std.wav,0.07016270799795166,287.3449807089928,0.2495873329899041,287.52440537499206,0.49951454099209514,287.77433216699865,0.94978362499387,288.2246007089998,,0.949587332989904,288.22460187498655,0.22708850974177347,1.1766758427316775,288.45244816699415,delayed,1.13938620800036,288.41421112499665,,left,,,0,287.0675331669918,288.45244816699415,1.3849150000023656,main,6
135,2,2,17,active,face_present,face_present,fpa03.png,face,meaningful,frequent,,left,top,standard,-0.013302687091527182,std.wav,0.2273413749935571,288.9265052499977,0.25026470799639355,288.94942808400083,0.49226029199780896,289.19142408399784,0.9510912499972619,289.65025445898937,,0.9502647079963935,289.65025558399793,0.42800501093021454,1.378269718926608,290.0783608339989,delayed,1.140343874998507,289.8395161249937,,left,,,0,288.4526148339937,290.0783608339989,1.6257460000051651,main,6
136,2,2,18,active,face_present,face_absent,faa30.png,face,ambiguous,rare,,right,top,standard,-0.11938818308199743,std.wav,0.12077962500916328,290.40380424998875,0.2496988750062883,290.5327229169925,0.4994584170053713,290.7824825419957,0.9497607090015663,291.2327844169922,,0.9496988750062882,291.2327855839976,0.6128501187231136,1.562548993729402,291.84576141698926,immediate,,,,right,,,0,290.07853199999954,291.84576141698926,1.7672294169897214,main,6
137,2,2,19,active,face_present,face_absent,faa07.png,face,ambiguous,rare,,right,top,blank,,,,,0.2501363329938613,292.1079047089879,0.4999885830038693,292.3577569589979,0.950173541001277,292.8079415839893,,0.9501363329938612,292.8079428339988,0.6750447228751244,1.6251810558689856,293.48389449999377,immediate,,,,right,,,0,291.84592654199514,293.48389449999377,1.637967957998626,main,6
138,2,2,20,active,face_present,face_present,fpa17.png,face,meaningful,frequent,,left,top,standard,-0.14544896260747991,std.wav,0.09496962500270456,293.78671683398716,0.24930183299875353,293.9410488339927,0.49083658299059607,294.1825833339972,0.9503372909966856,294.64208345899533,,0.9493018329987535,294.64208458398934,0.8281484835034894,1.7774503165022428,295.47023895899474,immediate,,,,left,,,0,293.48401883398765,295.47023895899474,1.9862201250070939,main,6
139,2,2,21,baseline,face_present,,,,,baseline,,,,blank,,,,,,,,,,,295.4745519999997,,,1.2326591733155505,,,,,,,,,,,295.47042754199356,296.70724737498676,1.2368198329932056,main,6
140,2,2,22,baseline,face_present,,,,,baseline,,,,blank,,,,,,,,,,,296.7160833339876,,,1.423854116144571,,,,,,,,,,,296.7073595839902,298.13996566699643,1.4326060830062488,main,6
141,2,2,23,baseline,face_present,,,,,baseline,,,,blank,,,,,,,,,,,298.14236054199864,,,1.3853627004221631,,,,,,,,,,,298.14006187499035,299.52780545898713,1.3877435839967802,main,6
142,2,8,1,active,face_absent,face_absent,faa18.png,face,ambiguous,frequent,,right,bottom,standard,-0.04566568246025171,std.wav,0.19472374999895692,368.6861598749965,0.24959241699252743,368.74102833399957,0.4915338749997318,368.98296945900074,0.950344666998717,369.44177974999184,,0.9495924169925274,369.44178091699723,0.5419905505571971,1.4915829675497245,369.9834448749898,delayed,1.2458261669962667,369.73727158398833,,right,,,0,368.26375062498846,369.9834448749898,1.7196942500013392,main,7
143,2,8,2,active,face_absent,face_absent,faa30.png,face,ambiguous,frequent,,right,bottom,standard,-0.028497669142988874,std.wav,0.21250879199942574,370.42035912499705,0.24981954200484324,370.4576697089942,0.49167025000497233,370.69952049999847,0.9502791669947328,371.15812874998664,,0.9498195420048432,371.1581298749952,0.29533810745505584,1.245157649459899,371.45358312499593,delayed,1.1608324169937987,371.3686924999929,,right,,,0,369.983621374995,371.45358312499593,1.469961750000948,main,7
144,2,8,3,active,face_absent,face_absent,faa15.png,face,ambiguous,frequent,,right,bottom,standard,-0.02665523105534956,std.wav,0.21405533299548551,371.89681812499475,0.2499309999984689,371.93269354199583,0.4999188329966273,372.1826812090003,0.9509008750028443,372.6336627089913,,0.9499309999984689,372.63366391698946,0.4999665858464622,1.449897585844931,373.1333796669933,immediate,,,,right,,,0,371.4537492919917,373.1333796669933,1.6796303750015795,main,7
145,2,8,4,active,face_absent,face_absent,faa29.png,face,ambiguous,frequent,,right,top,blank,,,,,0.24191075000271667,373.38260766699386,0.48333529199589975,373.6240321669902,0.9425843750068452,374.08328041699133,,0.9419107500027166,374.0832814999885,0.3022976438095742,1.2442083938122908,374.3849514169997,immediate,,,,right,,,0,373.133547999998,374.3849514169997,1.2514034170017112,main,7
146,2,8,5,active,face_absent,face_absent,faa03.png,face,ambiguous,frequent,,right,bottom,blank,,,,,0.2500022089952836,374.6409701669909,0.49139275000197813,374.88236087499536,0.9505400000052759,375.3415079999977,,0.9500022089952835,375.3415092089999,0.7614929746632106,1.7114951836584942,376.10321837499214,delayed,1.1688518339942675,375.5598291669885,,right,,,0,374.38509645899467,376.10321837499214,1.7181219159974717,main,7
147,2,8,6,active,face_absent,face_absent,faa18.png,face,ambiguous,frequent,,right,top,standard,0.15620442166208193,std.wav,0.3971865829953458,376.73020016698865,0.24966708300053142,376.58268045898876,0.4996599580044858,376.83267291699303,0.9502771249972284,377.2832898339984,,0.9496670830005314,377.28329095899244,0.5218954762576844,1.4715625592582158,377.8054180839972,delayed,1.2707283750060014,377.60375108399603,,right,,,0,376.1033806669875,377.8054180839972,1.7020374170097057,main,7
148,2,8,7,active,face_absent,face_present,fpa24.png,face,meaningful,rare,,left,bottom,standard,-0.22617866142515294,std.wav,0.014434124997933395,378.04740549999406,0.24966766699799336,378.28263866699126,0.499692084005801,378.53266316698864,0.9497941250010626,378.9827646249905,,0.9496676669979933,378.98276583399274,0.48952184344945054,1.439189510447444,379.47223866698914,immediate,,,,left,,,0,377.80560212499404,379.47223866698914,1.6666365419951035,main,7
149,2,8,8,active,face_absent,face_absent,faa14.png,face,ambiguous,frequent,,right,top,deviant,-0.2075543675332266,deviant.wav,0.033284459001151845,379.73291799999424,0.2495023749943357,379.9491354999918,0.491065833994071,380.1906990419957,0.9503112499951385,380.6499438339961,,0.9495023749943357,380.6499449999974,0.51047946380227,1.4599818387966057,381.16015320899896,immediate,,,,right,,,0,379.4724148339883,381.16015320899896,1.6877383750106674,main,7
150,2,8,9,active,face_absent,face_present,fpa19.png,face,meaningful,rare,,left,top,standard,-0.2177609676006159,std.wav,0.022817875011241995,381.41427862498676,0.249569125007838,381.64102941699093,0.49956133399973623,381.8910212089977,0.9500333340110956,382.3414929999999,,0.949569125007838,382.3414941249939,0.41057996801180346,1.3601490930196414,382.7523290419922,immediate,,,,left,,,0,381.1603477089957,382.7523290419922,1.591981332996511,main,7
151,2,8,10,active,face_absent,face_absent,faa22.png,face,ambiguous,frequent,,right,top,deviant,-0.23717563308520823,deviant.wav,0.003130875003989786,382.98584649999975,0.24997383300797082,383.23268920899136,0.4914609170082258,383.47417612498975,0.9503944580064854,383.9331091669883,,0.9499738330079708,383.9331103339937,0.5881487292767242,1.538122562284695,384.52143162499124,immediate,,,,right,,,0,382.7524998339941,384.52143162499124,1.7689317909971578,main,7
152,2,8,11,active,face_absent,face_absent,faa29.png,face,ambiguous,frequent,,right,top,standard,0.07223004314180342,std.wav,0.31304625001212116,385.06275837498833,0.24964533300953917,384.99935804199777,0.4910542500001611,385.24076662499283,0.9497226250095991,385.69943475000036,,0.9496453330095391,385.69943620898994,0.6612482163321747,1.6108935493417138,386.36088445899077,delayed,1.1604711660038447,385.9101937089872,,right,,,0,384.5216057499929,386.36088445899077,1.839278708997881,main,7
153,2,8,12,active,face_absent,face_absent,faa10.png,face,ambiguous,frequent,,right,bottom,standard,-0.16772467800170554,std.wav,0.07268470800772775,386.66415037499974,0.24955929200223181,386.8410243339895,0.4995301250019111,387.0909950839996,0.9503255830059061,387.5417899999884,,0.9495592920022318,387.54179112499696,0.3483537766854211,1.2979130686876528,387.88950437499443,immediate,,,,right,,,0,386.3610834169958,387.88950437499443,1.5284209579986054,main,7
154,2,8,13,active,face_absent,face_present,fpa25.png,face,meaningful,rare,,left,bottom,standard,0.003205228594905102,std.wav,0.24975499999709427,388.3660958339897,0.2496479580004234,388.3659894589946,0.4911445829930017,388.60748537498876,0.9505546659929678,389.06689508398995,,0.9496479580004233,389.06689616698714,0.6825435375846187,1.632191495585042,389.7491137499892,delayed,1.2373776250024093,389.3537278339936,,left,,,0,387.8896769999992,389.7491137499892,1.8594367499899818,main,7
155,2,8,14,active,face_absent,face_absent,faa07.png,face,ambiguous,frequent,,right,top,standard,0.15616842684821025,std.wav,0.39672441700531635,390.37147187499795,0.2496082919969922,390.2243563749944,0.4913487919984618,390.4660964169889,0.9501738749968354,390.92492087499704,,0.9496082919969921,390.92492208399926,0.44773897191636747,1.3973472639133595,391.372220166988,immediate,,,,right,,,0,389.7493034169893,391.372220166988,1.6229167499986943,main,7
156,2,8,15,active,face_absent,face_present,fpa20.png,face,meaningful,rare,,left,top,standard,0.007186519710647987,std.wav,0.2496869169990532,391.8494671249937,0.24957933300174773,391.84936016699066,0.49952387499797624,392.0993045840005,0.9497337500069989,392.5495136669924,,0.9495793330017477,392.54951479198644,0.6127461327020226,1.5623254657037702,393.16302129199903,delayed,1.2651336670096498,392.86492366698803,,left,,,0,391.3723938339972,393.16302129199903,1.7906274580018362,main,7
157,2,8,16,active,face_absent,face_absent,faa27.png,face,ambiguous,frequent,,right,top,standard,-0.1272961749680938,std.wav,0.112886625007377,393.5042985839973,0.24929041700670496,393.64070154199726,0.49125416700553615,393.88266516699514,0.9503175830031978,394.3417283749877,,0.9492904170067049,394.3417294999963,0.3312957539779783,1.2805861709846833,394.67247137498634,immediate,,,,right,,,0,393.16319283399207,394.67247137498634,1.5092785409942735,main,7
158,2,8,17,active,face_absent,face_absent,faa30.png,face,ambiguous,frequent,,right,top,standard,-0.1033203141524893,std.wav,0.13728879099653568,395.03666362499644,0.24995704100001603,395.14933191699674,0.4996792499878211,395.3990538749931,0.9506646249938058,395.85003883398895,,0.949957041000016,395.85003999999026,0.6885934473414936,1.6385504883415096,396.53870887499943,immediate,,,,right,,,0,394.67264537498704,396.53870887499943,1.8660635000123875,main,7
159,2,8,18,active,face_absent,face_absent,faa21.png,face,ambiguous,frequent,,right,bottom,standard,-0.17533645092885008,std.wav,0.06531520800490398,396.8316287089983,0.24969795800279826,397.01601104199653,0.49168770799587946,397.25800087499374,0.9501992909936234,397.71651170898986,,0.9496979580027982,397.7165133339877,0.6401547805123301,1.5898527385151282,398.3566373749927,delayed,1.1611005830054637,397.927422541994,,right,,,0,396.53889250000066,398.3566373749927,1.8177448749920586,main,7
160,2,8,19,active,face_absent,face_absent,faa11.png,face,ambiguous,frequent,,right,top,standard,-0.2017075682952319,std.wav,0.03937458300788421,398.62263987500046,0.24913312500575557,398.8323979169945,0.49117554200347513,399.0744400419935,0.9500110000080895,399.533275416994,,0.9491331250057555,399.5332765839994,0.7272238178539618,1.6763569428597174,400.25990987499245,delayed,1.1617712500010384,399.74505087498983,,right,,,0,398.3568532089994,400.25990987499245,1.9030566659930628,main,7
161,2,8,20,active,face_absent,face_absent,faa30.png,face,ambiguous,frequent,,right,bottom,standard,-0.12080258404210986,std.wav,0.11997104100009892,400.60295937499905,0.24942529099644162,400.73241324999253,0.49142249999567866,400.974410291994,0.9500508749915753,401.43303816700063,,0.9494252909964416,401.43303937499877,0.6978937750030447,1.6473190659994863,402.1303149999876,delayed,1.1605077909916872,401.6435034999886,,right,,,0,400.2600992499938,402.1303149999876,1.870215749993804,main,7
162,2,8,21,baseline,face_absent,,,,,baseline,,,,blank,,,,,,,,,,,402.1334055419866,,,1.3222353733344263,,,,,,,,,,,402.1305224169919,403.45570849999785,1.325186083005974,main,7
163,2,8,22,baseline,face_absent,,,,,baseline,,,,blank,,,,,,,,,,,403.45904441698804,,,1.3478993403639208,,,,,,,,,,,403.4558434999926,404.8070213339961,1.3511778340034653,main,7
164,2,8,23,baseline,face_absent,,,,,baseline,,,,blank,,,,,,,,,,,404.81627062500047,,,1.137914398562336,,,,,,,,,,,404.80717266698775,405.954231249998,1.147058583010221,main,7
165,2,15,1,active,face_present,face_present,fpa06.png,face,meaningful,frequent,,right,bottom,standard,-0.17724609893877263,std.wav,0.06327812500239816,412.9715254170005,0.2492214160010917,413.15746824999223,0.4907465830037836,413.39899345899175,0.9502404579980066,413.8584868339967,,0.9492214160010917,413.85848799999803,0.23191080204338507,1.1811322180444768,414.0900875419902,immediate,,,,right,,,0,412.6811851669918,414.0900875419902,1.4089023749984335,main,8
166,2,15,2,active,face_present,face_present,fpa17.png,face,meaningful,frequent,,right,top,standard,0.10217605845941213,std.wav,0.34236008299922105,414.6833662499994,0.24194229100248776,414.5829483339912,0.4834133330004988,414.82441916699463,0.9423034579958767,415.28330891698715,,0.9419422910024877,415.28331012499984,0.49775225460081884,1.4396945456033066,415.78093229199294,immediate,,,,right,,,0,414.0902575839864,415.78093229199294,1.6906747080065543,main,8
167,2,15,3,active,face_present,face_present,fpa14.png,face,meaningful,frequent,,right,top,deviant,0.1457864459565716,deviant.wav,0.38680866701179184,416.41979795899533,0.24937979200331029,416.2823694169929,0.4909933340095449,416.5239827919868,0.950174124998739,416.98316299999715,,0.9493797920033102,416.98316412499116,0.249705811061877,1.1990856030651873,417.2324642089952,delayed,1.1818351670081029,417.21483195899054,,right,,,0,415.78110537499015,417.2324642089952,1.4513588340050774,main,8
168,2,15,4,active,face_present,face_present,fpa03.png,face,meaningful,frequent,,right,top,blank,,,,,0.24197637500765268,417.4829947089893,0.48342937500274274,417.72444758399797,0.9423009590100264,418.1833185419964,,0.9419763750076526,418.1833196669904,0.8723911103625992,1.8143674853702518,419.0557885839953,delayed,1.1741852090053726,418.4152139999933,,right,,,0,417.23263570899144,419.0557885839953,1.8231528750038706,main,8
169,2,15,5,active,face_present,face_present,fpa10.png,face,meaningful,frequent,,right,bottom,standard,-0.1368379515934691,std.wav,0.1038599999883445,419.40348612499656,0.24941954099631403,419.5490452089871,0.4910740409977734,419.7906998749968,0.9501777909899829,420.24980312499974,,0.949419540996314,420.24980424999376,0.2691059311559783,1.2185254721522922,420.51894899999024,delayed,1.2068011249939445,420.5064354999922,,right,,,0,419.0559661249863,420.51894899999024,1.462982875003945,main,8
170,2,15,6,active,face_present,face_present,fpa26.png,face,meaningful,frequent,,right,bottom,blank,,,,,0.24227516700921115,420.766337958994,0.4835003750049509,421.00756258399633,0.9432192920066882,421.46728137499304,,0.9422751670092111,421.46728254199843,0.32484807743738653,1.2671232444465976,421.79216029199597,immediate,,,,right,,,0,420.5191233339865,421.79216029199597,1.2730369580094703,main,8
171,2,15,7,active,face_present,face_absent,faa21.png,face,ambiguous,rare,,left,bottom,standard,-0.05011895070272607,std.wav,0.19005808400106616,422.2313357089879,0.24996479199035093,422.2912416670006,0.4914610419946257,422.5327381669922,0.9508991670008982,422.9921761669975,,0.9499647919903509,422.99217754199344,0.36694955282384256,1.3169143448141933,423.3591256669897,delayed,1.1835632500005886,423.22484887499013,,left,,,0,421.7923029169906,423.3591256669897,1.566822749999119,main,8
172,2,15,8,active,face_present,face_absent,faa14.png,face,ambiguous,rare,,left,top,standard,0.1202375093168121,std.wav,0.36130287499690894,423.9859459589934,0.24963866699545179,423.8742818749888,0.4911277499923017,424.11577074999514,0.9501016669964883,424.5747440839914,,0.9496386669954517,424.57474529198953,0.5637179414755834,1.5133566084710353,425.138716292,delayed,1.182025624992093,424.8066760419897,,left,,,0,423.3593081669969,425.138716292,1.7794081250031013,main,8
173,2,15,9,active,face_present,face_present,fpa03.png,face,meaningful,frequent,,right,bottom,deviant,0.12583554543392178,deviant.wav,0.36659129199688323,425.749586209,0.24993054200604092,425.632925916987,0.49966266700357664,425.8826577919972,0.9503680830093799,426.33336262499506,,0.9499305420060409,426.33336379200045,0.22023167535667165,1.1701622173627126,426.5651690419909,delayed,1.182118958007777,426.56512274999113,,right,,,0,425.13890616699064,426.5651690419909,1.4262628750002477,main,8
174,2,15,10,active,face_present,face_present,fpa21.png,face,meaningful,frequent,,right,bottom,standard,0.11828851620032793,std.wav,0.3592670840007486,427.2586742499989,0.24962216700077988,427.1490288749919,0.49141874999622814,427.3908257919975,0.950570583998342,427.849976958998,,0.9496221670007798,427.8499780419952,0.4563942935380268,1.4060164605388066,428.30600533398683,immediate,,,,right,,,0,426.5654567499878,428.30600533398683,1.7405485839990433,main,8
175,2,15,11,active,face_present,face_present,fpa24.png,face,meaningful,frequent,,right,top,standard,-0.0016270786985843055,std.wav,0.23860295799386222,428.7879718339973,0.2500350000045728,428.79940324999916,0.4999292080028681,429.04929787499714,0.9507176250044722,429.50008562499715,,0.9500350000045727,429.5000867089984,0.8988144018906796,1.8488494018952524,430.3988286249951,immediate,,,,right,,,0,428.3061903749913,430.3988286249951,2.0926382500038017,main,8
176,2,15,12,active,face_present,face_present,fpa12.png,face,meaningful,frequent,,right,top,standard,-0.20875779351869186,std.wav,0.032282792002661154,430.6819124589965,0.24942470899259206,430.8990540419909,0.4911923750041751,431.1408215419942,0.9504186669946648,431.6000476249901,,0.949424708992592,431.6000487919955,0.8695791798606862,1.8190038888532782,432.46945387499,delayed,1.1822568339994177,431.83189641698846,,right,,,0,430.39899966699886,432.46945387499,2.0704542079911334,main,8
177,2,15,13,active,face_present,face_present,fpa30.png,face,meaningful,frequent,,right,bottom,standard,0.030478945049709105,std.wav,0.270818707998842,432.98743504199956,0.2492594579962315,432.9658764999913,0.499312291998649,433.21592879199306,0.9502671670052223,433.6668832919968,,0.9492594579962315,433.6668843339867,0.6302524598852073,1.5795119178814387,434.29676499999186,immediate,,,,right,,,0,432.46965374999854,434.29676499999186,1.8271112499933224,main,8
178,2,15,14,active,face_present,face_absent,faa19.png,face,ambiguous,rare,,left,top,standard,0.15622602041040684,std.wav,0.3972250420047203,434.9468889999989,0.24981399999524,434.7994779589935,0.4913277500018012,435.0409918339865,0.9507172089943197,435.5003816249955,,0.94981399999524,435.50038287499046,0.5630073524249577,1.5128213524201977,436.06273208399944,delayed,1.1825803340034327,435.73225454198837,,left,,,0,434.2969405420008,436.06273208399944,1.7657915419986239,main,8
179,2,15,15,active,face_present,face_present,fpa19.png,face,meaningful,frequent,,right,top,standard,0.13470263217171907,std.wav,0.37505658400186803,436.68309954198776,0.24930679200042505,436.55734949999896,0.49112370899820235,436.7991665419977,0.9497326669952599,437.25777487499,,0.949306792000425,437.2577760419954,0.5764839699771247,1.5257907619775497,437.834835458998,immediate,,,,right,,,0,436.0629284589959,437.834835458998,1.771907000002102,main,8
180,2,15,16,active,face_present,face_present,fpa13.png,face,meaningful,frequent,,right,top,standard,-0.006046224758233576,std.wav,0.2342086249991553,438.31719879199227,0.24937029200373217,438.3323590839864,0.4913387920096284,438.57432779199735,0.9504094170115422,439.0333978749986,,0.9493702920037321,439.03339899999264,0.7764882268347582,1.7258585188384903,439.8095133339957,delayed,1.2556490840070182,439.3386481669877,,right,,,0,437.8350117089867,439.8095133339957,1.9745016250089975,main,8
181,2,15,17,active,face_present,face_present,fpa28.png,face,meaningful,frequent,,right,top,standard,-0.03653232445078397,std.wav,0.20366483299585525,440.2617162089882,0.24986850000277627,440.30791962498915,0.4913776670000516,440.549428333994,0.9499772499984829,441.00802766699053,,0.9498685000027762,441.0080287919991,0.646997814786557,1.5968663147893332,441.65536212499137,immediate,,,,right,,,0,439.8097142089973,441.65536212499137,1.84564791599405,main,8
182,2,15,18,active,face_present,face_absent,faa26.png,face,ambiguous,rare,,left,top,standard,-0.1836313742038266,std.wav,0.057210333994589746,441.9568822089932,0.24963612499414012,442.14930799999274,0.4996332500013523,442.3993047089898,0.9503980000008596,442.85006887499185,,0.9496361249941401,442.8500700000004,0.43832929844579904,1.387965423439939,443.28843704199244,delayed,1.1824406249943422,443.08212245898903,,left,,,0,441.655521416993,443.28843704199244,1.6329156249994412,main,8
183,2,15,19,active,face_present,face_present,fpa22.png,face,meaningful,frequent,,right,bottom,standard,-0.16709871095894502,std.wav,0.07324937499652151,443.63091537498985,0.24993658300081734,443.80760241700045,0.4999353329912992,444.0576011249941,0.9504197079950245,444.50808495898673,,0.9499365830008173,444.50808612498804,0.23607129263054832,1.1860078756313657,444.74408908399346,immediate,,,,right,,,0,443.28862149998895,444.74408908399346,1.4554675840045093,main,8
184,2,15,20,active,face_present,face_present,fpa06.png,face,meaningful,frequent,,right,top,standard,-0.09316255010436417,std.wav,0.14696633399580605,445.1380032499874,0.24966037498961668,445.2406970419979,0.4916913339984603,445.4827279589954,0.9505057089991169,445.9415417089913,,0.9496603749896166,445.9415428749926,0.8033758009512626,1.7530361759408792,446.7448902499891,immediate,,,,right,,,0,444.7442773340008,446.7448902499891,2.000612915988313,main,8
185,2,15,21,baseline,face_present,,,,,baseline,,,,blank,,,,,,,,,,,446.7491722089908,,,1.3344836691619757,,,,,,,,,,,446.7450690419937,448.08370649999415,1.3386374580004485,main,8
186,2,15,22,baseline,face_present,,,,,baseline,,,,blank,,,,,,,,,,,448.0911214589869,,,1.418491696015752,,,,,,,,,,,448.0838345839875,449.5096675419918,1.425832958004321,main,8
187,2,15,23,baseline,face_present,,,,,baseline,,,,blank,,,,,,,,,,,449.5161656249984,,,0.9732596280477316,,,,,,,,,,,449.5097844589909,450.4894708339998,0.979686375008896,main,8
188,2,10,1,active,face_absent,face_absent,faa06.png,face,ambiguous,frequent,,right,bottom,standard,0.11922032939978894,std.wav,0.3595188339968445,477.1424862499989,0.24939141698996536,477.0323591669876,0.4996215419960208,477.28258929199365,0.9498321669962024,477.73279929198907,,0.9493914169899653,477.7328004999872,0.8285959714738702,1.7779873884638355,478.5616399589926,immediate,,,,right,,,0,476.51034504199924,478.5616399589926,2.0512949169933563,main,9
189,2,10,2,active,face_absent,face_absent,faa11.png,face,ambiguous,frequent,,right,bottom,standard,0.08883140607028844,std.wav,0.3294490000116639,479.16250320899417,0.24927520799974445,479.0823296249873,0.49135799999930896,479.32441254198784,0.9498999170027673,479.7829537919897,,0.9492752079997444,479.7829549589951,0.7801705965207348,1.7294458045204792,480.5633745419909,delayed,1.2035433330020169,480.0366072499892,,right,,,0,478.56181704199116,480.5633745419909,2.0015574999997625,main,9
190,2,10,3,active,face_absent,face_absent,faa29.png,face,ambiguous,frequent,,right,bottom,blank,,,,,0.24957412500225473,480.82428066698776,0.491011875012191,481.06571808399167,0.9504786250035977,481.52518466699985,,0.9495741250022547,481.525185874998,0.5029371956842723,1.452511320686527,482.02810804199544,delayed,1.2037289170111762,481.77844420899055,,right,,,0,480.5635683750006,482.02810804199544,1.464539666994824,main,9
191,2,10,4,active,face_absent,face_absent,faa24.png,face,ambiguous,frequent,,right,top,blank,,,,,0.24230391599121504,482.2830352919991,0.49186850000114646,482.5325996669999,0.9431375830026809,482.9838682089903,,0.942303915991215,482.9838693339989,0.6786507486463695,1.6209546646375845,483.6622368339886,delayed,1.195585540990578,483.23632433399325,,right,,,0,482.02827249999973,483.6622368339886,1.6339643339888426,main,9
