trial_global_index,level,block,block_name,trial_in_block,trial_type,standard_category,stimulus_category,stimulus_file,stimulus_family,stimulus_meaning,frequency_class,omitted_category,target_side,visual_distractor_pos,visual_distractor_offset_s,visual_distractor_onset_s,visual_distractor_onset_global_s,visual_distractor_offset_time_s,visual_distractor_offset_global_s,auditory_class,auditory_offset_s,paired_tone_file,paired_tone_onset_s,paired_tone_onset_global_s,visual_onset_s,visual_onset_global_s,visual_offset_s,visual_offset_global_s,response_window_end_s,response_window_end_global_s,baseline_onset_global_s,post_mask_start_s,post_mask_start_global_s,post_mask_duration_s,post_mask_end_s,post_mask_end_global_s,corollary_mode,corollary_onset_s,corollary_onset_global_s,corollary_delay_from_response_s,reversal_phase,correct_response,response,response_onset_global_s,rt_s,accuracy,trial_start_global_s,trial_end_global_s,trial_duration_s,phase,mixed_block_index
1,2,0,practice_level2,1,active,face_present,face_present,fpa06.png,face,meaningful,frequent,,left,bottom,0.028585097483203648,0.2691214999940712,15.443868458009092,0.4918066669924883,15.666554750001524,blank,,,,,0.24973337499250192,15.424481333000585,0.4918066669924883,15.666554750001524,0.9503235839947592,16.125070541005698,,0.9497333749925019,16.12507158301014,0.5314300269025134,1.4811634018950153,16.6567060410016,immediate,0.9187453749909764,16.093493291002233,0.00036266600363887846,,left,left,16.093427291008993,0.6686493339948356,1,15.163439708005171,16.6567060410016,1.493266332996427,practice,
2,2,0,practice_level2,2,active,face_present,face_present,fpa14.png,face,meaningful,frequent,,left,bottom,0.1451863713515864,0.38521562499227,17.1594411660044,0.4838305409939494,17.258056791004492,standard,-0.028108733352466664,std.wav,0.21217574999900535,16.9864021250105,0.24224804098776076,17.01647437500651,0.4838305409939494,17.258056791004492,0.9427072079997743,17.716932916009682,,0.9422480409877607,17.716933916002745,0.42833726713520626,1.3705853081229669,18.145806166008697,immediate,0.5435689159930917,17.317795416005538,0.0003811250062426552,,left,left,17.31771362500149,0.30093974999908824,1,16.65687833300035,18.145806166008697,1.488927833008347,practice,
3,2,0,practice_level2,3,active,face_present,face_present,fpa18.png,face,meaningful,frequent,,left,bottom,-0.04149917352481933,0.20053195899527054,18.466706125007477,0.439510166994296,18.705683375010267,standard,0.050767363302778035,std.wav,0.29171424999367446,18.55788770801155,0.24998412499553524,18.516158416008693,0.4913515839871252,18.7575254580006,0.9504600839863997,19.21663329099829,,0.9499841249955352,19.216634291005903,0.787103728293373,1.7370878532889082,20.00393120800436,immediate,0.540657999998075,18.80683158300235,0.0003300829994259402,,left,left,18.80675729100767,0.2903437920031138,1,18.145978665997973,20.00393120800436,1.8579525420063874,practice,
4,3,0,practice_level3,1,active,face_present,face_present,fpa03.png,face,meaningful,frequent,,left,bottom,0.08812831959063089,0.3283005000121193,20.45308320800541,0.4997406670008786,20.62452441600908,standard,-0.07650419402790906,std.wav,0.16396641700703185,20.288749416009523,0.24972841700946447,20.374511875008466,0.4997406670008786,20.62452441600908,0.9504925420042127,21.075275499999407,,0.9497284170094644,21.07527695799945,0.6345574515817056,1.58428586859117,21.70948400000634,,,,,post_reversal,right,left,20.68832516600378,0.3135256660025334,0,20.00419387500733,21.70948400000634,1.70529012499901,practice,
5,3,0,practice_level3,2,active,face_present,face_present,fpa23.png,face,meaningful,frequent,,left,bottom,0.18430143116782277,0.42440516701026354,22.25795833300799,0.4910375000035856,22.324590958000044,standard,0.020122245357132418,std.wav,0.2612527500023134,22.09480641600385,0.24935741700755898,22.08291158299835,0.4910375000035856,22.324590958000044,0.9500812920014141,22.783634457999142,,0.9493574170075589,22.78363541600993,0.8325211230521632,1.7818785400597221,23.61588541600213,,,,,post_reversal,right,left,22.376565583006595,0.293345332989702,0,21.70968441601144,23.61588541600213,1.9062009999906877,practice,
6,3,0,practice_level3,3,active,face_present,face_present,fpa12.png,face,meaningful,frequent,,left,top,0.07961291786652519,0.3201059169950895,24.053150250008912,0.49979991700092796,24.232845208010986,standard,0.13904293992924532,std.wav,0.3795713750005234,24.112616124999477,0.24982204199477565,23.982867750004516,0.49979991700092796,24.232845208010986,0.9500733339955332,24.683117833003053,,0.9498220419947756,24.68311891600024,0.3907872453556807,1.3406092873504563,25.073984000002383,,,,,post_reversal,right,left,24.2994880410115,0.3120637920073932,0,23.616082458000164,25.073984000002383,1.4579015420022188,practice,
7,2,4,mixed01_level2_block04,1,active,face_absent,face_absent,faa17.png,face,ambiguous,frequent,,right,bottom,-0.19479173856541873,0.057928541995352134,28.46588495800097,0.28622449999966193,28.694180250007776,standard,-0.1879556649722905,std.wav,0.052603167001507245,28.460560207997332,0.2498602919949917,28.657816457998706,0.49175658299645875,28.89971295800933,0.9500242920039454,29.357980208005756,,0.9498602919949917,29.35798149999755,0.6869533585623278,1.6368136505573194,30.045529208000517,immediate,0.801138249997166,29.20909412500623,0.00030699999479111284,,right,right,29.209017665998545,0.5509709580073832,1,28.283924166011275,30.045529208000517,1.7616050419892417,main,1
8,2,4,mixed01_level2_block04,2,active,face_absent,face_absent,faa17.png,face,ambiguous,frequent,,right,bottom,0.20507563950727065,0.44567466698936187,30.61206470800971,0.4914190419949591,30.657809249998536,standard,-0.16388086351857517,std.wav,0.07720712499576621,30.243597458000295,0.24974795899470337,30.41613862500526,0.4914190419949591,30.657809249998536,0.9505975840002066,31.116987583009177,,0.9497479589947033,31.116988916008268,0.6332754890319439,1.5830234480266472,31.750122625002405,immediate,0.5062354589899769,30.67262554100307,0.0003690839948831126,,right,right,30.672541125008138,0.2561184160003904,1,30.046483708007145,31.750122625002405,1.70363891699526,main,1
9,2,4,mixed01_level2_block04,3,active,face_absent,face_absent,faa23.png,face,ambiguous,frequent,,right,bottom,0.124579914089327,0.36524316600116435,32.23133854100888,0.4917446250037756,32.357840374999796,standard,0.09641051964581626,std.wav,0.33661712500907015,32.20271275000414,0.24207312500220723,32.108169375002035,0.4917446250037756,32.357840374999796,0.9428436250018422,32.80893895799818,,0.9420731250022072,32.80894000000262,0.693668876584866,1.6357420015870732,33.502812791004544,delayed,0.9428911249997327,32.80898675000935,0.4302805420011282,,right,right,32.37897212500684,0.2705374579963973,1,31.750308291011606,33.502812791004544,1.7525044999929378,main,1
10,2,4,mixed01_level2_block04,4,active,face_absent,face_absent,faa19.png,face,ambiguous,frequent,,right,top,-0.23164130237844452,0.016148500013514422,33.64086866599973,0.24982862500473857,33.87454758300737,deviant,0.11577098538656122,deviant.wav,0.3558738340070704,33.98059308300435,0.24974516700604,33.87446500000078,0.4917269590077922,34.1164465410111,0.9503334590117447,34.575052416010294,,0.94974516700604,34.57505350001156,0.5193157547556368,1.4690609217616768,35.09381554101128,immediate,0.582060917004128,34.206780207998236,0.0003487920039333403,,right,right,34.20671804100857,0.33196695799415465,1,33.502987915999256,35.09381554101128,1.5908276250120252,main,1
11,2,4,mixed01_level2_block04,5,active,face_absent,face_present,fpa14.png,face,meaningful,rare,,left,bottom,0.22191989233251103,0.46237024999572895,35.6785664580093,0.49135233300330583,35.70754920800391,standard,0.0034931852440612254,std.wav,0.24996370800363366,35.46616041600646,0.24989154099603184,35.466089082998224,0.49135233300330583,35.70754920800391,0.9506430830078898,36.16683975000342,,0.9498915409960318,36.16684075001103,0.6508459850866168,1.6007375260826486,36.81723970800522,delayed,0.9507274579955265,36.16692466600216,0.39405445799638983,,left,left,35.7731522910035,0.30678145900310483,1,35.093987500004005,36.81723970800522,1.7232522080012131,main,1
12,2,4,mixed01_level2_block04,6,active,face_absent,face_absent,faa23.png,face,ambiguous,frequent,,right,bottom,-0.13350068761402467,0.15829762499197386,37.09087300000829,0.34662187499634456,37.27919645801012,deviant,-0.08837802381583182,deviant.wav,0.15195549999771174,37.08453104100772,0.2419967500027269,37.17457220800861,0.48359720800362993,37.41617250000127,0.942147166992072,37.87472208299732,,0.9419967500027269,37.874723125001765,0.7601717553997189,1.7021685054024458,38.63535741600208,delayed,0.9636663749988656,37.89624229101173,0.482689541997388,,right,right,37.413820375004434,0.23898008299875073,1,36.817389500007266,38.63535741600208,1.8179679159948137,main,1
13,2,4,mixed01_level2_block04,7,active,face_absent,face_present,fpa21.png,face,meaningful,rare,,left,top,-0.1255381487010624,0.12457600000197999,38.882828375004465,0.3548448749934323,39.11309595800412,standard,-0.21526005852390945,std.wav,0.024911500004236586,38.78316329100926,0.2495604169962462,39.007811957999365,0.4995667089970084,39.25781816600647,0.9496432919986546,39.707894250008394,,0.9495604169962462,39.70789520800463,0.283271021373926,1.2328314383701722,39.99200637500326,delayed,0.949728084000526,39.707979625003645,0.5223419590038247,,left,right,39.18591512501007,0.17782570800045505,0,38.635529666004004,39.99200637500326,1.3564767089992529,main,1
14,2,4,mixed01_level2_block04,8,active,face_absent,face_absent,faa01.png,face,ambiguous,frequent,,right,top,-0.029047982413472506,0.21669941701111384,40.32453500000702,0.45174012500501703,40.55957562501135,standard,-0.08425257485756621,std.wav,0.15623100000084378,40.26406645801035,0.2418565420084633,40.34969191600976,0.49169441701087635,40.59953000000678,0.9419087499991292,41.04974345800292,,0.9418565420084632,41.04974441599916,0.8578988978897253,1.7997554398981885,41.90804200001003,delayed,0.9502683750033611,41.05810350000684,0.3893430000025546,,right,right,40.669035291008186,0.31906883299234323,1,39.992164249997586,41.90804200001003,1.9158777500124415,main,1
15,2,4,mixed01_level2_block04,9,active,face_absent,face_absent,faa13.png,face,ambiguous,frequent,,right,bottom,-0.09405367336920209,0.14909454100416042,42.174152040999616,0.3870056250016205,42.41206279100152,standard,-0.09888079139704667,std.wav,0.14199408300919458,42.16705208300846,0.24944620800670236,42.274504500004696,0.49096633300359827,42.51602416600508,0.9496935830102302,42.974750791006954,,0.9494462080067023,42.974751833011396,0.6890148367548228,1.638461044761525,43.663945000007516,immediate,0.5116755000053672,42.53673300000082,0.00033333399915136397,,right,right,42.53665208299935,0.2618959579995135,1,41.908269958003075,43.663945000007516,1.755675042004441,main,1
16,2,4,mixed01_level2_block04,10,active,face_absent,face_absent,faa24.png,face,ambiguous,frequent,,right,bottom,-0.21606985038967166,0.08310104100382887,43.86621254100464,0.264636916006566,44.04774733301019,standard,-0.16132317527695456,std.wav,0.07909833300800528,43.86220933300501,0.24969008300104178,44.03280095801165,0.49144666601205245,44.27455766600906,0.9504174580069957,44.733528249998926,,0.9496900830010417,44.73352966600214,0.2093135537348214,1.1590036367358632,44.94269462500233,delayed,0.9505032500019297,44.73361391600338,0.4892053749936167,,right,right,44.244676415997674,0.2116077920072712,1,43.66411041600804,44.94269462500233,1.278584208994289,main,1
17,2,4,mixed01_level2_block04,11,active,face_absent,face_absent,faa06.png,face,ambiguous,frequent,,right,top,0.07158448595777733,0.31160012500185985,45.37778170801175,0.4999907500023255,45.56617304100655,standard,-0.009853160422164775,std.wav,0.2306173340039095,45.296799625008134,0.25000579199695494,45.316188291006256,0.4999907500023255,45.56617304100655,0.950816084005055,46.01699787500547,,0.9500057919969549,46.016999041006784,0.5237646470467616,1.4737704390437165,46.540242875009426,immediate,0.6023070420051226,45.66848887500237,0.0003563750069588423,,right,right,45.668409833000624,0.35194487500120886,1,44.94286404100421,46.540242875009426,1.5973788340052124,main,1
18,2,4,mixed01_level2_block04,12,active,face_absent,face_absent,faa24.png,face,ambiguous,frequent,,right,top,0.16561792351968468,0.4056545419880422,47.06762983300723,0.49162483398686163,47.15360099999816,standard,0.06933748343583268,std.wav,0.31039512499410193,46.972370791001595,0.2420260839862749,46.90400237499853,0.49162483398686163,47.15360099999816,0.9426172499952372,47.60459279100178,,0.9420260839862749,47.60459387500305,0.2806954063328031,1.222721490319078,47.885409666007035,immediate,0.5066555839875946,47.168631291002384,0.0003860419965349138,,right,right,47.16857341599825,0.26424345800478477,1,46.540434583002934,47.885409666007035,1.3449750830041012,main,1
19,2,4,mixed01_level2_block04,13,active,face_absent,face_absent,faa23.png,face,ambiguous,frequent,,right,top,-0.16154777214633684,0.1665508750011213,48.170139250010834,0.31879154199850745,48.32237933301076,standard,-0.08067190113932154,std.wav,0.15942224999889731,48.16301137499977,0.24996345900581218,48.25355137500446,0.4915749589999905,48.49516512500122,0.9503377500077477,48.953925125009846,,0.9499634590058121,48.953926166010206,0.3362599517673275,1.2862234107731396,49.28993883301155,immediate,0.5930911670002388,48.59667937499762,0.00035000000207219273,,right,right,48.59659829099837,0.3427777079923544,1,47.885596125008306,49.28993883301155,1.4043427080032416,main,1
20,2,4,mixed01_level2_block04,14,active,face_absent,face_absent,faa11.png,face,ambiguous,frequent,,right,top,-0.06601767465447561,0.1830559169902699,49.59501887499937,0.41445749999547843,49.82641995800077,standard,-0.06659850462997915,std.wav,0.17438766699342523,49.586350750003476,0.24968187499325722,49.66164479100553,0.4918824579945067,49.90384533299948,0.9499641669972334,50.36192670800665,,0.9496818749932572,50.361927958001615,0.47938694296008055,1.4290688179533377,50.84150566600147,immediate,0.5113384169962956,49.92330141599814,0.000370834008208476,,right,right,49.92321904101118,0.26128570799482986,1,49.290093415998854,50.84150566600147,1.5514122500026133,main,1
21,2,4,mixed01_level2_block04,15,active,face_absent,face_present,fpa12.png,face,meaningful,rare,,left,top,0.2027367334145836,0.4436485409969464,51.29731283300498,0.49156379100168124,51.34522854100214,blank,,,,,0.24208683300821576,51.0957514160109,0.49156379100168124,51.34522854100214,0.943033582996577,51.79669800000556,,0.9420868330082157,51.796699458005605,0.6397857038513435,1.5818725368595592,52.43642212499981,immediate,0.5657728750084061,51.41943745801109,0.0003362920106155798,,left,left,51.41935966600431,0.3233497499895748,1,50.841657875003875,52.43642212499981,1.594764249995933,main,1
22,2,4,mixed01_level2_block04,16,active,face_absent,face_absent,faa27.png,face,ambiguous,frequent,,right,bottom,0.20197245648362205,0.44302995900216047,52.99721900001168,0.49118891700345557,53.045378291004454,standard,-0.11803533731011284,std.wav,0.12219445900700521,52.676383833008,0.24915204200078733,52.80334150000999,0.49118891700345557,53.045378291004454,0.9496672920067795,53.50385616600397,,0.9491520420007873,53.503857290997985,0.29259606721050224,1.2417481092112896,53.79670633299975,delayed,1.0647312500077533,53.61892037501093,0.49510783300502226,,right,right,53.1240955000103,0.32047137500194367,1,52.43655366600433,53.79670633299975,1.3601526669954183,main,1
23,2,4,mixed01_level2_block04,17,active,face_absent,face_absent,faa20.png,face,ambiguous,frequent,,right,bottom,-0.14069737575537827,0.10812054200505372,54.02428491599858,0.3403059580014087,54.256469458006904,standard,-0.15046559142309124,std.wav,0.08997404199908487,54.00613808300113,0.25002920800761785,54.16619308300142,0.4916300000040792,54.40779404100613,0.9506404170097085,54.86680400000478,,0.9500292080076178,54.86680495800101,0.7952541151535979,1.7452833231612157,55.66154658301093,immediate,0.6184028749994468,54.534566625006846,0.00033216699375770986,,right,right,54.53450262499973,0.36804149999807123,1,53.79686445801053,55.66154658301093,1.8646821250003995,main,1
24,2,4,mixed01_level2_block04,18,active,face_absent,face_absent,faa04.png,face,ambiguous,frequent,,right,bottom,0.2181212236920661,0.45849591700243764,56.241611750010634,0.49157029199704994,56.274686750010005,standard,0.11613975022756096,std.wav,0.35705991700524464,56.140176125001744,0.24939441699825693,56.03251145800459,0.49157029199704994,56.274686750010005,0.9494239170016954,56.732539832999464,,0.9493944169982569,56.73254083300708,0.82215141019869,1.7715458271969469,57.55522354099958,delayed,1.0432978339958936,56.82641429100477,0.45968816700042225,,right,right,56.36698262501159,0.3342152499972144,1,55.661705874998006,57.55522354099958,1.8935176660015713,main,1
25,2,4,mixed01_level2_block04,19,active,face_absent,face_absent,faa24.png,face,ambiguous,frequent,,right,top,-0.12128840936760202,0.12500954199640546,57.69114779100346,0.3590468750044238,57.92518458300037,blank,,,,,0.24189958300848957,57.80803783300507,0.49167108300025575,58.057809125006315,0.9419474580063252,58.50808512500953,,0.9418995830084895,58.50808616600989,0.750560285235502,1.6924598682439915,59.25960970800952,delayed,0.9420363329991233,58.50817437500518,0.4990671659907093,,right,right,58.009362124998006,0.20106958399992436,1,57.555381166006555,59.25960970800952,1.7042285420029657,main,1
26,2,4,mixed01_level2_block04,20,active,face_absent,face_present,fpa01.png,face,meaningful,rare,,left,top,-0.08634962886404238,0.174421749994508,59.55771054100478,0.3941214999940712,59.77740929101128,standard,-0.06950526768243936,std.wav,0.1708090829924913,59.55409795801097,0.24921125000400934,59.632499708008254,0.4910760000057053,59.87436387500202,0.9501061670016497,60.33339433300716,,0.9492112500040093,60.33339570800308,0.4840245874752616,1.4332358374792709,60.81669366599817,delayed,0.9522605420061154,60.335549333001836,0.4430247090058401,,left,right,59.892827500007115,0.26002458299626596,0,59.25976170800277,60.81669366599817,1.5569319579954026,main,1
27,2,4,mixed01_level2_block04,21,baseline,face_absent,,,,,baseline,,,,,,,,,blank,,,,,,,,,,,60.82450920800329,,,1.4458388333873942,,,,,,,,,,,,,60.81687025001156,62.2703744580067,1.4535042079951381,main,1
28,2,4,mixed01_level2_block04,22,baseline,face_absent,,,,,baseline,,,,,,,,,blank,,,,,,,,,,,62.27472325001145,,,1.1938823738667126,,,,,,,,,,,,,62.270499500009464,63.46862320799846,1.198123707988998,main,1
29,2,4,mixed01_level2_block04,23,baseline,face_absent,,,,,baseline,,,,,,,,,blank,,,,,,,,,,,63.47454391600331,,,1.1277767019319458,,,,,,,,,,,,,63.46873354099807,64.60237595799845,1.1336424170003738,main,1
30,2,5,mixed02_level2_block05,1,active,face_absent,face_absent,faa06.png,face,ambiguous,frequent,,right,top,0.12942505120052666,0.3694612499966752,65.09429720800836,0.48327262500242796,65.20810916600749,standard,0.034258688414158245,std.wav,0.274823291998473,64.99965933299973,0.24179149999690708,64.96662812501017,0.48327262500242796,65.20810916600749,0.941898916993523,65.66673470800743,,0.941791499996907,65.66673570800049,0.6381142116365329,1.5799057116334398,66.30529904100695,immediate,0.4137345839990303,65.13857075000124,0.00035458400088828057,,right,left,65.13850441599789,0.17158850000123493,0,64.60249000000476,66.30529904100695,1.7028090410021832,main,2
31,2,5,mixed02_level2_block05,2,active,face_absent,face_absent,faa29.png,face,ambiguous,frequent,,right,bottom,-0.031223484610914648,0.22445979199255817,66.64917454100214,0.4496287499932805,66.87434287500218,deviant,-0.02507790189493475,deviant.wav,0.2155737919965759,66.6402884160052,0.24977483399561606,66.67448979101027,0.49979254200297873,66.92450733300939,0.9503566670027794,67.37507066600665,,0.949774833995616,67.37507170801109,0.36282996516231886,1.3126047991579348,67.73770416600746,immediate,0.5552700419939356,66.97998437500792,0.0003513330011628568,,right,right,66.97991045800154,0.30514387499715667,1,66.30546237500675,67.73770416600746,1.4322417910007061,main,2
32,2,5,mixed02_level2_block05,3,active,face_absent,face_absent,faa29.png,face,ambiguous,frequent,,right,bottom,-0.21177959073295424,0.09136512500117533,67.94916925000143,0.26869712499319576,68.12650062500325,standard,-0.15838195873118616,std.wav,0.08261208300245926,67.9404168750043,0.24195795800187625,68.09976212499896,0.4925818750052713,68.35038604099827,0.9429297080059769,68.80073370800528,,0.9419579580018762,68.80073537499993,0.4666124751446442,1.4085704331465205,69.26725620801153,immediate,0.49272704200120643,68.35053079100908,0.0010676250094547868,,right,right,68.3504528330086,0.2497014589898754,1,67.737848165998,69.26725620801153,1.5294080420135288,main,2
33,2,5,mixed02_level2_block05,4,active,face_absent,face_absent,faa10.png,face,ambiguous,frequent,,right,bottom,-0.07202331929143027,0.17497962499328423,69.56641816601041,0.40898729099717457,69.80042479099939,standard,-0.2144965766674086,std.wav,0.02594570799556095,69.41738420800539,0.24941987499187235,69.64085804100614,0.49556516599841416,69.88700337499904,0.9498390410008142,70.34127704100683,,0.9494198749918723,70.34127845799958,0.6183483451917053,1.5677682201835776,70.95946270800778,immediate,0.5904024159972323,69.98184033299913,0.000375000003259629,,right,right,69.98175262501172,0.34060754100210033,1,69.26743908300705,70.95946270800778,1.6920236250007292,main,2
34,2,5,mixed02_level2_block05,5,active,face_absent,face_absent,faa29.png,face,ambiguous,frequent,,right,top,0.18989266827892887,0.4305549999990035,71.50953837500128,0.4913537909887964,71.57033783300722,standard,0.07339905126210639,std.wav,0.3144919999904232,71.39347599999746,0.24935529100184795,71.32833966601174,0.4913537909887964,71.57033783300722,0.9504299580003135,72.02941366600862,,0.9493552910018479,72.02941479100264,0.7015558329977003,1.6509111239995482,72.7305074580072,delayed,0.9505164159927517,72.02950062500895,0.3990168750024168,,right,right,71.63077191601042,0.302144249988487,1,70.95963545799896,72.7305074580072,1.7708720000082394,main,2
35,2,5,mixed02_level2_block05,6,active,face_absent,face_absent,faa17.png,face,ambiguous,frequent,,right,top,-0.10783781746396096,0.21603783300088253,73.0699900410109,0.37229912499606144,73.22625054100354,standard,-0.027562411577960022,std.wav,0.212845791989821,73.06679866599734,0.2497125829977449,73.10366483300459,0.4916424580005696,73.34559450000233,0.9497768750006799,73.80372825000086,,0.9497125829977449,73.80372920801165,0.4344919157843039,1.3842044987820488,74.23901908300468,delayed,0.9498609169968404,73.80381270800717,0.43678745900979266,,right,right,73.3672919160017,0.26336087498930283,1,72.73073650000151,74.23901908300468,1.5082825830031652,main,2
36,2,5,mixed02_level2_block05,7,active,face_absent,face_present,fpa07.png,face,meaningful,rare,,left,bottom,-0.2117244804216127,0.03321854199748486,74.39521524999873,0.268914375003078,74.63091020799766,standard,0.04785659302331752,std.wav,0.2888458340021316,74.65084233300877,0.24965370900463313,74.61165008301032,0.4915621249965625,74.85355850000633,0.9506139169970993,75.31260966599802,,0.9496537090046331,75.31261070800247,0.5490086333663899,1.498662342371023,75.86155645801045,immediate,0.6023326669965172,74.96432870801073,0.0003398749977350235,,left,left,74.96426533300837,0.35233908299414907,1,74.2391596660018,75.86155645801045,1.622396792008658,main,2
37,2,5,mixed02_level2_block05,8,active,face_absent,face_present,fpa22.png,face,meaningful,rare,,left,top,-0.04553728554431963,0.21630845899926499,76.19529254100053,0.43548629200086,76.41446941600589,standard,-0.030710045637903693,std.wav,0.20986933399399277,76.18885375000536,0.24163229200348724,76.22061637500883,0.49128929199650884,76.4702732910082,0.9425546249985928,76.92153779100045,,0.9416322920034872,76.92153887500172,0.7839785242582886,1.7256108162617758,77.70527000000584,delayed,0.9859727500006557,76.96495641600632,0.3899982080038171,,left,left,76.57524783301051,0.3543422499933513,1,75.86171312500664,77.70527000000584,1.8435568749991944,main,2
38,2,5,mixed02_level2_block05,9,active,face_absent,face_absent,faa18.png,face,ambiguous,frequent,,right,top,0.01060844783456577,0.2509791250049602,78.07988329100772,0.4955439580080565,78.32444841600955,standard,-0.1910512727306922,std.wav,0.04927141600637697,77.87817687500501,0.24557620800624136,78.07448125000519,0.4955439580080565,78.32444841600955,0.9464811250072671,78.77538529101002,,0.9455762080062413,78.7753863750113,0.4757024243219021,1.4212786323281434,79.25036587500654,delayed,0.9465657499968074,78.7754702079983,0.44024637500115205,,right,right,78.33553620800376,0.260743166989414,1,77.70545895800751,79.25036587500654,1.5449069169990253,main,2
39,2,5,mixed02_level2_block05,10,active,face_absent,face_present,fpa09.png,face,meaningful,rare,,left,bottom,-0.04336083810696992,0.19944091700017452,79.56579270800285,0.43674625000858214,79.80309724999825,standard,0.14451609577912405,std.wav,0.38464324999949895,79.75099445800879,0.24946900000213645,79.61582070800068,0.49169275000167545,79.85804429100244,0.9495012920087902,80.31585237500258,,0.9494690000021364,80.31585354100389,0.4524475986655012,1.4019165986676376,80.76927208300913,immediate,0.5231515420018695,79.88950283300073,0.0003324999997857958,,left,left,79.88944362499751,0.2733500419999473,1,79.25054037501104,80.76927208300913,1.5187317079980858,main,2
40,2,5,mixed02_level2_block05,11,active,face_absent,face_absent,faa14.png,face,ambiguous,frequent,,right,bottom,-0.2294257593082517,0.01668358300230466,80.79917020800349,0.25139416599995457,81.0338800830068,blank,,,,,0.24185245799890254,81.02433900001051,0.4834314580075443,81.26591779101,0.9427070829988224,81.72519304099842,,0.9418524579989025,81.72519408300286,0.439080915519093,1.3809333735179954,82.1636735409993,immediate,0.5451467910024803,81.32763308299764,0.0003494160046102479,,right,right,81.32755850000831,0.30294491699896753,1,80.76944612500665,82.1636735409993,1.3942274159926455,main,2
41,2,5,mixed02_level2_block05,12,active,face_absent,face_absent,faa06.png,face,ambiguous,frequent,,right,bottom,0.028115949747649138,0.26851312500366475,82.55132441601017,0.48346124999807216,82.76627312500204,standard,0.03970122673451343,std.wav,0.2800556250003865,82.56286733300658,0.24172458300017752,82.52453675000288,0.48346124999807216,82.76627312500204,0.9427465409971774,83.2255578750046,,0.9417245830001775,83.22555899999861,0.733900155158492,1.6756247381586695,83.95875912500196,immediate,0.56163424999977,82.84444579100818,0.00034166699333582073,,right,right,82.84437362500466,0.3195680000062566,1,82.16380537500663,83.95875912500196,1.7949537499953294,main,2
42,2,5,mixed02_level2_block05,13,active,face_absent,face_absent,faa29.png,face,ambiguous,frequent,,right,bottom,0.17370469689682766,0.41390316700562835,84.48864458300523,0.491052541998215,84.56579433300067,standard,-0.06613677569176452,std.wav,0.17414712499885354,84.24888887500856,0.24942224999540485,84.3241635000013,0.491052541998215,84.56579433300067,0.9500644170038868,85.02480545800063,,0.9494222499954048,85.02480650000507,0.8529073700966077,1.8023296200920125,85.87805116600066,delayed,0.9501463339984184,85.02488858300785,0.44977674999972805,,right,right,84.57540629099822,0.2509473340032855,1,83.95893475000048,85.87805116600066,1.919116416000179,main,2
43,2,5,mixed02_level2_block05,14,active,face_absent,face_absent,faa10.png,face,ambiguous,frequent,,right,top,0.0430382747851632,0.2835578750091372,86.28334325000469,0.4914804580039345,86.49126645800425,standard,-0.22045988482649256,std.wav,0.020581040997058153,86.02036750000843,0.24938554099935573,86.24917158301105,0.4914804580039345,86.49126645800425,0.9496772080019582,86.94946270799846,,0.9493855409993557,86.94946370800608,0.8658946253836928,1.8152801663830485,87.81511475000298,immediate,0.49903858300240245,86.49882433300081,0.0003192080039298162,,right,right,86.4987475000089,0.2493338339991169,1,85.87819591601146,87.81511475000298,1.9369188339915127,main,2
44,2,5,mixed02_level2_block05,15,active,face_absent,face_present,fpa13.png,face,meaningful,rare,,left,top,0.1668298035424794,0.40727566700661555,88.2320066250104,0.4910785000101896,88.31581012500101,blank,,,,,0.2494050840032287,88.07413679100864,0.4910785000101896,88.31581012500101,0.9496370000124443,88.77436845800548,,0.9494050840032286,88.7743695829995,0.7175820291846569,1.6669871131878855,89.49269858300977,delayed,0.9785510840010829,88.80328320800618,0.4562844589963788,,left,left,88.34730020799907,0.2728615410014754,1,87.81532508300734,89.49269858300977,1.6773735000024317,main,2
45,2,5,mixed02_level2_block05,16,active,face_absent,face_absent,faa26.png,face,ambiguous,frequent,,right,bottom,-0.04459045294845834,0.1996562080021249,89.80784624999797,0.43580137500248384,90.04399079100403,deviant,-0.04750852666371358,deviant.wav,0.19268804200692102,89.80087820799963,0.2496445830038283,89.85783483300474,0.4915767079946818,90.09976679099782,0.9501344169984804,90.5583237910032,,0.9496445830038283,90.55832479101082,0.7155373697208363,1.6651819527246645,91.27385195800161,immediate,0.522495124998386,90.13068487501005,0.00036291699507273734,,right,right,90.13061391600058,0.272487624999485,1,89.49282775000029,91.27385195800161,1.7810242080013268,main,2
46,2,5,mixed02_level2_block05,17,active,face_absent,face_absent,faa17.png,face,ambiguous,frequent,,right,top,-0.1138822515010752,0.13313862500945106,91.5244808330026,0.36657225000089966,91.75791295801173,standard,0.017051610442550214,std.wav,0.25806666699645575,91.64940841600765,0.2494714579952415,91.64081300000544,0.4916060420073336,91.88294729100016,0.9497867500031134,92.34112774999812,,0.9494714579952415,92.34112887500669,0.7961234349520834,1.7455948929473248,93.13779191600042,delayed,0.9498766670003533,92.34121791600774,0.4597633749945089,,right,right,91.88300845801132,0.2406418340106029,1,91.27402700000675,93.13779191600042,1.86376491599367,main,2
47,2,5,mixed02_level2_block05,18,active,face_absent,face_absent,faa23.png,face,ambiguous,frequent,,right,top,0.030327487569234313,0.2705215419991873,93.52897304100043,0.49069983400113415,93.74915200000396,standard,0.009358119715867558,std.wav,0.25027220899937674,93.5087244160095,0.2491234170011012,93.5075752910052,0.49069983400113415,93.74915200000396,0.9498903339990648,94.20834208300221,,0.9491234170011011,94.20834320801077,0.7027006695370226,1.6518240865381237,94.91052795801079,delayed,0.9499850419961149,94.20843725001032,0.4509539999999106,,right,right,93.75779104100366,0.2499076249951031,1,93.13795187500364,94.91052795801079,1.7725760830071522,main,2
48,2,5,mixed02_level2_block05,19,active,face_absent,face_absent,faa20.png,face,ambiguous,frequent,,right,top,0.10256124428030583,0.3431366250006249,95.3759269160073,0.4831370829924708,95.51592800000799,standard,-0.07207806104551007,std.wav,0.16848300000128802,95.20127395800955,0.24179391599318478,95.27458479099732,0.4831370829924708,95.51592800000799,0.9428287079936126,95.97561904101167,,0.9417939159931847,95.97562004100473,0.5190873867148206,1.4608813027080054,96.49457987499773,delayed,0.942904041003203,95.97569470800227,0.4401379160117358,,right,right,95.53584370799945,0.26097220899828244,1,94.91069504100597,96.49457987499773,1.5838848339917604,main,2
49,2,5,mixed02_level2_block05,20,active,face_absent,face_absent,faa07.png,face,ambiguous,frequent,,right,bottom,0.060081752489181295,0.300386625007377,96.91655020799953,0.48307883300003596,97.09924300000421,standard,0.11684427544206288,std.wav,0.3573882920027245,96.97355212501134,0.24167704200954176,96.85784158299793,0.48307883300003596,97.09924300000421,0.9425659580010688,97.55872941600683,,0.9416770420095417,97.55873041599989,0.31277088047152374,1.2544479224810654,97.87157895800192,delayed,0.9581194580096053,97.57428341600462,0.416830290996586,,right,right,97.16618116600148,0.29961212500347756,1,96.49473345800652,97.87157895800192,1.3768454999953974,main,2
50,2,5,mixed02_level2_block05,21,baseline,face_absent,,,,,baseline,,,,,,,,,blank,,,,,,,,,,,97.87410954100778,,,1.2275098985207307,,,,,,,,,,,,,97.87173875000735,99.10166829099762,1.2299295409902697,main,2
51,2,5,mixed02_level2_block05,22,baseline,face_absent,,,,,baseline,,,,,,,,,blank,,,,,,,,,,,99.10806350001076,,,1.244636942738174,,,,,,,,,,,,,99.10176512500038,100.35273087500536,1.2509657500049798,main,2
52,2,5,mixed02_level2_block05,23,baseline,face_absent,,,,,baseline,,,,,,,,,blank,,,,,,,,,,,100.35787208299735,,,1.4776546711707663,,,,,,,,,,,,,100.35282395800459,101.83556099999987,1.4827370419952786,main,2
53,2,3,mixed03_level2_block03,1,active,face_present,face_absent,faa05.png,face,ambiguous,rare,,left,bottom,-0.19474030436429562,0.0665455410053255,111.9455047500087,0.285884666009224,112.16484337500879,standard,-0.17491411413191166,std.wav,0.06514416600111872,111.94410400000925,0.24957066601200495,112.12852929100336,0.4910021250107093,112.36996120800904,0.949724750011228,112.82868333300576,,0.9495706660120049,112.82869420800125,0.5478112223564864,1.4973818883684913,113.37731337500736,delayed,0.9819404160080012,112.86089945799904,0.4354062500060536,,left,left,112.42576750001172,0.29696349998994265,1,111.75306508300127,113.37731337500736,1.6242482920060866,main,3
54,2,3,mixed03_level2_block03,2,active,face_present,face_present,fpa08.png,face,meaningful,frequent,,right,bottom,0.14118427419277468,0.38156695799261797,113.87690775000374,0.49992395799199585,113.9952655829984,standard,0.12541148415911518,std.wav,0.3663976669922704,113.86173970800883,0.24986949999583885,113.74521162500605,0.49992395799199585,113.9952655829984,0.9502938749938039,114.4456352499983,,0.9498694999958388,114.44563670799835,0.6437185715506542,1.593588071546493,115.08905595800024,immediate,0.5028495419974206,113.99819062500319,0.0003788339963648468,,right,right,113.99809987501067,0.2526012080052169,1,113.37748154099972,115.08905595800024,1.71157441700052,main,3
55,2,3,mixed03_level2_block03,3,active,face_present,face_present,fpa24.png,face,meaningful,frequent,,right,top,0.12314567359468243,0.36344458399980795,115.57538354099961,0.4834654170117574,115.69540483300807,standard,-0.19921764634928762,std.wav,0.04132966700126417,115.25326987500011,0.2419034170015948,115.45384304100298,0.4834654170117574,115.69540483300807,0.941991917003179,116.15393104100076,,0.9419034170015947,116.15393212500203,0.2945891790014918,1.2364925960030866,116.44877400000405,delayed,0.942082792011206,116.15402229101164,0.46232604200486094,,right,right,115.69195983299869,0.2378533330047503,1,115.08936308301054,116.44877400000405,1.359410916993511,main,3
56,2,3,mixed03_level2_block03,4,active,face_present,face_absent,faa28.png,face,ambiguous,rare,,left,bottom,0.07611667354916984,0.316889749999973,116.88714904100925,0.49137733300449327,117.0616370409989,standard,-0.1799628755808988,std.wav,0.06106395801180042,116.63132404100907,0.2497023750038352,116.81996191600047,0.49137733300449327,117.0616370409989,0.950236708013108,117.52049637500022,,0.9497023750038351,117.52049775001069,0.20268423854409495,1.1523866135479301,117.72342704101175,immediate,0.5808643750060583,117.15112470800523,0.0003549169923644513,,left,left,117.15105279099953,0.3308070830098586,1,116.44893233300536,117.72342704101175,1.2744947080063866,main,3
57,2,3,mixed03_level2_block03,5,active,face_present,face_present,fpa06.png,face,meaningful,frequent,,right,top,-0.04314944221606584,0.1994389159954153,118.0449614579993,0.4373565829882864,118.28287850000197,standard,-0.19264959842118112,std.wav,0.047513165991404094,117.89303608299815,0.2498161659896141,118.09533908301091,0.4914373329957016,118.33695983300277,0.9508803749922663,118.7964028330025,,0.949816165989614,118.79640420799842,0.6269785542609829,1.576794720250597,119.42285679100314,immediate,0.5185939160000999,118.36411616600526,0.00034170800063293427,,right,right,118.36404749999929,0.2684360420098528,1,117.72358729100961,119.42285679100314,1.6992694999935338,main,3
58,2,3,mixed03_level2_block03,6,active,face_present,face_present,fpa29.png,face,meaningful,frequent,,right,top,0.11798632061453701,0.35855179200007115,119.903911625006,0.49157733301399276,120.03693791601108,standard,-0.030614795623961383,std.wav,0.20965766700101085,119.75501833300223,0.24962037500517908,119.79498079100449,0.49157733301399276,120.03693791601108,0.9498903330095345,120.49525045799965,,0.949620375005179,120.49525162500504,0.4348760738408127,1.3844964488459919,120.93070841601002,immediate,0.5154576250060927,120.06081770799938,0.0003684999974211678,,right,right,120.06074629099749,0.26546875000349246,1,119.42302491600276,120.93070841601002,1.5076835000072606,main,3
59,2,3,mixed03_level2_block03,7,active,face_present,face_absent,faa29.png,face,ambiguous,rare,,left,bottom,-0.20679137587216073,0.041336542009958066,121.09498525000527,0.2738825000124052,121.32753066600708,standard,0.019018568863191143,std.wav,0.2601415000099223,121.31379000000015,0.24175458399986383,121.29540304100374,0.4913469170132885,121.54499525000574,0.9422790000098757,121.99592683299852,,0.9417545839998638,121.99592795800709,0.35883736867457283,1.3005919526744365,122.35523345800175,immediate,0.47498891700524837,121.52863708299992,0.00035679199208971113,,left,right,121.52856562500529,0.23287754101329483,0,120.93088912501116,122.35523345800175,1.4243443329905858,main,3
60,2,3,mixed03_level2_block03,8,active,face_present,face_present,fpa19.png,face,meaningful,frequent,,right,bottom,-0.10305982341905645,0.1416435840073973,122.62025954099954,0.3779591250058729,122.85657412500586,standard,0.13290730075816198,std.wav,0.37362700000812765,122.85224254100467,0.24185512500116602,122.72047075000592,0.4913622500025667,122.96997779099911,0.9420012500049779,123.42061637500592,,0.941855125001166,123.42061754100723,0.7860150351530617,1.7278701601542277,124.20661608299997,immediate,0.5169152919988846,122.99553058300808,0.0003070419916184619,,right,right,122.99547049999819,0.27475312500610016,1,122.35541495800135,124.20661608299997,1.8512011249986244,main,3
61,2,3,mixed03_level2_block03,9,active,face_present,face_present,fpa20.png,face,meaningful,frequent,,right,top,-0.11942665010368733,0.24129325000103563,124.57026583299739,0.36082175000046846,124.6897939160117,standard,-0.002687929443684789,std.wav,0.23737241599883419,124.56634499999927,0.2622424159926595,124.59121533299913,0.5037856659910176,124.83275783300633,0.9625650410016533,125.29153766600939,,0.9622424159926595,125.29153862500971,0.314515553846696,1.2767579698393554,125.6062132500083,delayed,0.9626630409911741,125.29163550000521,0.4994594579911791,,right,right,124.79246095800772,0.20096116700733546,1,124.20677804099978,125.6062132500083,1.3994352090085158,main,3
62,2,3,mixed03_level2_block03,10,active,face_present,face_present,fpa08.png,face,meaningful,frequent,,right,top,0.043632155814479545,0.28392558300402015,125.89998179100803,0.4916424580005696,126.10769929100934,blank,,,,,0.249738750004326,125.86579558299854,0.4916424580005696,126.10769929100934,0.9503902080032276,126.56644637499994,,0.949738750004326,126.56644754100125,0.27586320868662517,1.2256019586909512,126.84166112499952,immediate,0.546231208005338,126.16228762500396,0.0003477080026641488,,right,right,126.16221150000638,0.29614474999834783,1,125.60635458301113,126.84166112499952,1.2353065419883933,main,3
63,2,3,mixed03_level2_block03,11,active,face_present,face_absent,faa26.png,face,ambiguous,rare,,left,top,0.13975991055487297,0.3805317499936791,127.36327454099956,0.4835357499978272,127.46627904100751,deviant,-0.2195652519349729,deviant.wav,0.020578666997607797,127.00332191601046,0.24196970800403506,127.22471304101055,0.4835357499978272,127.46627904100751,0.9421486670034938,127.9248915000062,,0.941969708004035,127.92489266600751,0.8115780239983514,1.7535477320023865,128.73701362501015,immediate,0.49122087500290945,127.47396387500339,0.0003842080041067675,,left,left,127.47388087501167,0.24886695899476763,1,126.84180229100457,128.73701362501015,1.8952113340055803,main,3
64,2,3,mixed03_level2_block03,12,active,face_present,face_present,fpa18.png,face,meaningful,frequent,,right,bottom,-0.23788826855094708,0.007546791995991953,128.89083866600413,0.24925312500272412,129.13254412500828,standard,0.06910328652113962,std.wav,0.3091848750045756,129.19247670800542,0.2491638339997735,129.13245558300696,0.4914524589985376,129.37474425000255,0.9499144590081414,129.83320529101184,,0.9491638339997734,129.8332062910049,0.7373179803189669,1.6864818143187403,130.5699477080052,delayed,0.9499977090017637,129.83328912500292,0.42911800000001676,,right,right,129.40440716600278,0.2717158750019735,1,128.73719395800435,130.5699477080052,1.8327537500008475,main,3
65,2,3,mixed03_level2_block03,13,active,face_present,face_present,fpa20.png,face,meaningful,frequent,,right,bottom,0.0903355559274453,0.3310857080068672,131.03910045800149,0.48754229200130794,131.19555745800608,standard,0.060816918436200185,std.wav,0.3011231249984121,131.00913812500949,0.24562570800480898,130.95364150000387,0.48754229200130794,131.19555745800608,0.9463175419950858,131.65433241600113,,0.9456257080048089,131.65433362500335,0.39208036650472644,1.3377060745095353,132.0459262910008,delayed,0.9514782080077566,131.6594932910084,0.4285160830040695,,right,right,131.23127879100502,0.2773364169988781,1,130.5701157500007,132.0459262910008,1.4758105410001008,main,3
66,2,3,mixed03_level2_block03,14,active,face_present,face_present,fpa23.png,face,meaningful,frequent,,right,top,-0.0648742275643954,0.18328974999894854,132.37021600001026,0.415660749989911,132.60258600000816,standard,0.05293606915166593,std.wav,0.29384412500075996,132.48076983301144,0.24997791599889752,132.43690429101116,0.49185574999137316,132.67878162499983,0.9505573749920586,133.13748283300083,,0.9499779159988975,133.1374839580094,0.3197582618828748,1.2697361778817724,133.4574065409979,delayed,0.9506483329896582,133.13757437501044,0.4162059169902932,,right,right,132.72163895799895,0.2844645000004675,1,132.04608924999775,133.4574065409979,1.4113172910001595,main,3
67,2,3,mixed03_level2_block03,15,active,face_present,face_present,fpa09.png,face,meaningful,frequent,,right,bottom,0.1762659013509325,0.4171852500003297,134.01218729100947,0.4836624169984134,134.07866545800061,standard,0.09849171671019019,std.wav,0.33952449999924283,133.934526750003,0.2422362919896841,133.8372392500023,0.4836624169984134,134.07866545800061,0.9425700829888228,134.53757241601124,,0.9422362919896841,134.537573833004,0.5288593501230252,1.4710956421127093,135.0664374580083,immediate,0.5109580419957638,134.10596112500934,0.00038241699803620577,,right,right,134.10586283300654,0.26833933300804347,1,133.45757516600133,135.0664374580083,1.608862292006961,main,3
68,2,3,mixed03_level2_block03,16,active,face_present,face_present,fpa02.png,face,meaningful,frequent,,right,bottom,0.160344809201299,0.4010456669930136,135.60464091600443,0.4917945419874741,135.69539041600365,standard,0.1368779101721289,std.wav,0.37742029198852833,135.58101645800343,0.24972133299161214,135.45331754100334,0.4917945419874741,135.69539041600365,0.9498042919876752,136.1534002499975,,0.9497213329916121,136.15340158301115,0.20817748948155973,1.1578988224731719,136.36156025000673,delayed,0.9498881249892293,136.15348408299906,0.47778129199286923,,right,right,135.67596445800154,0.22238550000474788,1,135.06661995800096,136.36156025000673,1.2949402920057764,main,3
69,2,3,mixed03_level2_block03,17,active,face_present,face_present,fpa07.png,face,meaningful,frequent,,right,bottom,0.04329361789964964,0.28406733299198095,136.79184750000422,0.49132104199088644,136.9991018330038,standard,0.048232145093249246,std.wav,0.2927772919938434,136.80055804100994,0.2496540829888545,136.7574350000068,0.49132104199088644,136.9991018330038,0.9503383749979548,137.45811933300865,,0.9496540829888545,137.4581207500014,0.5234800652736412,1.4731341482624956,137.981515958003,immediate,0.49912658298853785,137.00690704100998,0.0003503749903757125,,right,right,137.006835416003,0.24912212500930764,1,136.36173441600113,137.981515958003,1.6197815420018742,main,3
70,2,3,mixed03_level2_block03,18,active,face_present,face_present,fpa28.png,face,meaningful,frequent,,right,top,0.03059120247740832,0.270704750000732,138.39508512499742,0.4835902500053635,138.60797154100146,standard,-0.15865628325877354,std.wav,0.08138695800153073,138.20576791600615,0.2419921249966137,138.36637308300124,0.4835902500053635,138.60797154100146,0.9422793749981793,139.06665970799804,,0.9419921249966137,139.06666070800566,0.2930069795832936,1.2349991045799071,139.3596409580059,delayed,0.9423714169970481,139.0667520410061,0.585572833995684,,right,right,138.48144987500564,0.11480645800475031,1,137.9817038330075,139.3596409580059,1.3779371249984251,main,3
71,2,3,mixed03_level2_block03,19,active,face_present,face_present,fpa09.png,face,meaningful,frequent,,right,bottom,0.0391992276099325,0.28017970800283365,139.64624458301114,0.48341366699605715,139.84947912499774,blank,,,,,0.24174620800476987,139.6078113750118,0.48341366699605715,139.84947912499774,0.942778750002617,140.30884350000997,,0.9417462080047698,140.30884450000303,0.6937434686975081,1.635489676702278,141.0018682910013,delayed,0.942863792006392,140.30892891599797,0.4149757499981206,,right,right,139.89423354101018,0.28614183400350157,1,139.35980595801084,141.0018682910013,1.642062332990463,main,3
72,2,3,mixed03_level2_block03,20,active,face_present,face_present,fpa21.png,face,meaningful,frequent,,right,top,0.22747536623408954,0.46854141700896434,141.6098474580067,0.4996999590075575,141.64100658299867,deviant,-0.09424769882280115,deviant.wav,0.14673350000521168,141.28803974999755,0.2500685420091031,141.3913747080078,0.4996999590075575,141.64100658299867,0.950374959007604,142.0916811250063,,0.9500685420091031,142.09168216600665,0.4906508097350184,1.4407193517441215,142.58274879099918,delayed,1.0544922499975655,142.19579895801144,0.45965908298967406,,right,right,141.73641579100513,0.34476462499878835,1,141.00202591600828,142.58274879099918,1.5807228749908973,main,3
73,2,3,mixed03_level2_block03,21,baseline,face_present,,,,,baseline,,,,,,,,,blank,,,,,,,,,,,142.59079579100944,,,1.20234359651144,,,,,,,,,,,,,142.5829062499979,143.79316804101109,1.2102617910131812,main,3
74,2,3,mixed03_level2_block03,22,baseline,face_present,,,,,baseline,,,,,,,,,blank,,,,,,,,,,,143.7996833750076,,,1.2841059066395912,,,,,,,,,,,,,143.79326404099993,145.08381900000677,1.2905549590068404,main,3
75,2,3,mixed03_level2_block03,23,baseline,face_present,,,,,baseline,,,,,,,,,blank,,,,,,,,,,,145.09130591600842,,,1.3432087871873226,,,,,,,,,,,,,145.08392925000226,146.43453600000066,1.3506067499984056,main,3
76,3,3,mixed04_level3_block03,1,active,face_absent,face_absent,faa23.png,face,ambiguous,frequent,,left,bottom,-0.0914611026918489,0.15010616600920912,146.72481645800872,0.3889897080080118,146.96369908300403,standard,0.004476384068755973,std.wav,0.24490895800408907,146.81961862499884,0.24158825000631623,146.8162981659989,0.4828685829997994,147.057578500011,0.9418339580006432,147.5165434160008,,0.9415882500063162,147.51654458300618,0.843291645307457,1.7848798953137732,148.3604526249983,,,,,pre_reversal,right,left,147.15403637501004,0.3374409999960335,0,146.4346430410078,148.3604526249983,1.9258095839904854,main,4
77,3,3,mixed04_level3_block03,2,active,face_absent,face_absent,faa02.png,face,ambiguous,frequent,,left,top,-0.22405466692212578,0.02371495899569709,148.39108216601016,0.25632699999550823,148.62369300000137,blank,,,,,0.24883195900474675,148.61619887501,0.498722792006447,148.8660897910013,0.9495441670005675,149.3169101250096,,0.9488319590047467,149.31691112500266,0.5931074961213922,1.541939455126139,149.90957454100135,,,,,pre_reversal,right,left,148.9018333330023,0.2853547080012504,0,148.36064174999774,149.90957454100135,1.5489327910036081,main,4
78,3,3,mixed04_level3_block03,3,active,face_absent,face_absent,faa17.png,face,ambiguous,frequent,,left,top,0.225436718029848,0.46626724999805447,150.5159391250054,0.49169620899192523,150.5413688330009,standard,-0.0018822130414751503,std.wav,0.2384617089992389,150.28813450000598,0.24943587499728892,150.29910804099927,0.49169620899192523,150.5413688330009,0.9504580840002745,151.00013004100765,,0.9494358749972889,151.00013108299754,0.3885939627147971,1.338029837712086,151.38841804100957,,,,,pre_reversal,right,left,150.55115283300984,0.25171233400760684,0,149.90972375001002,151.38841804100957,1.478694290999556,main,4
79,3,3,mixed04_level3_block03,4,active,face_absent,face_present,fpa20.png,face,meaningful,rare,,right,top,-0.1957310836673635,0.18318716700014193,151.70774354100286,0.2846337919909274,151.80918929100153,standard,-0.06464355274602668,std.wav,0.17557295798906125,151.70012941599998,0.2416428750002524,151.7661990409979,0.4833395829919027,152.00789570801135,0.9421225830010371,152.466678124998,,0.9416428750002523,152.4666791250056,0.3543320251552925,1.295974900155545,152.82109662500443,,,,,pre_reversal,left,right,151.99588845799735,0.22941549999814015,0,151.3885770830093,152.82109662500443,1.4325195419951342,main,4
80,3,3,mixed04_level3_block03,5,active,face_absent,face_present,fpa13.png,face,meaningful,rare,,right,top,-0.2076297283084563,0.1582452500006184,153.11577220800973,0.2727380829892354,153.23026483300782,standard,-0.08396766541134448,std.wav,0.15669574998901226,153.1142236250016,0.241649999996298,153.19917733300827,0.4832554159947904,153.4407829999982,0.9417732500005513,153.89930004099733,,0.941649999996298,153.8993011660059,0.23145956052343186,1.17310956051973,154.13122387501062,,,,,pre_reversal,left,right,153.48171670800366,0.28227416599111166,0,152.82127250000485,154.13122387501062,1.3099513750057667,main,4
81,3,3,mixed04_level3_block03,6,active,face_absent,face_absent,faa03.png,face,ambiguous,frequent,,left,bottom,0.1813516575664309,0.422179208995658,154.6965332079999,0.49163437499373686,154.76598904099956,deviant,0.056538574722190815,deviant.wav,0.2972879169974476,154.5716422080004,0.24157154199201614,154.51592645799974,0.49163437499373686,154.76598904099956,0.941880874990602,155.21623529100907,,0.9415715419920161,155.21623679100594,0.46817557510957686,1.409747117101593,155.6847713330062,,,,,pre_reversal,right,left,154.8309285830037,0.3147233750059968,0,154.13142133300425,155.6847713330062,1.5533500000019558,main,4
82,3,3,mixed04_level3_block03,7,active,face_absent,face_absent,faa21.png,face,ambiguous,frequent,,left,bottom,0.11605613273029092,0.3563849580095848,156.1809551250044,0.4918170410091989,156.31638729100814,standard,-0.05682132752463484,std.wav,0.18376716600323562,156.0083386660117,0.2495455000025686,156.07411600000341,0.4918170410091989,156.31638729100814,0.9501196250057546,156.77468933300406,,0.9495455000025685,156.77469033301168,0.7137357556668689,1.6632812556694374,157.48796829101047,,,,,pre_reversal,right,left,156.38873304100707,0.3143474579992471,0,155.68493675001082,157.48796829101047,1.8030315409996547,main,4
83,3,3,mixed04_level3_block03,8,active,face_absent,face_absent,faa27.png,face,ambiguous,frequent,,left,bottom,-0.01139173098469054,0.2327760420012055,157.86586087499745,0.46926587499910966,158.1023499580042,standard,-0.12569747745968124,std.wav,0.11460862500825897,157.74769329100673,0.24995391700940672,157.88303908301168,0.49958166701253504,158.13266620801005,0.9502944170089904,158.58337862500048,,0.9499539170094067,158.58337975000904,0.7431533877784315,1.6931073047878382,159.3268019160023,,,,,pre_reversal,right,left,158.19592491599906,0.31259508299990557,0,157.488154125007,159.3268019160023,1.83864779099531,main,4
84,3,3,mixed04_level3_block03,9,active,face_absent,face_absent,faa16.png,face,ambiguous,frequent,,left,top,-0.23009290403056992,0.04130020900629461,159.50792225000623,0.25032375000591855,159.7169456660049,deviant,-0.20619220850216197,deviant.wav,0.033963292007683776,159.50058620799973,0.2492025840037968,159.71582466601103,0.4910443749977276,159.95766650000587,0.9495583749958314,160.41618000000017,,0.9492025840037968,160.41618108299735,0.4819813497937321,1.431183933797529,160.89811016600288,,,,,pre_reversal,right,left,159.94367041600344,0.22756120799749624,0,159.32698495801014,160.89811016600288,1.5711252079927363,main,4
85,3,3,mixed04_level3_block03,10,active,face_absent,face_absent,faa26.png,face,ambiguous,frequent,,left,bottom,-0.011176616083826668,0.2331031250068918,161.27446091599995,0.4697209580044728,161.51107866600796,standard,-0.17539209479986734,std.wav,0.06517179100774229,161.1065298330068,0.249630000005709,161.29098791599972,0.49108512500242796,161.5324430000037,0.9500221659982344,161.9913796660112,,0.949630000005709,161.9913807910052,0.35392191156841213,1.3035519115741212,162.34544212500623,,,,,pre_reversal,right,left,161.64392683299957,0.35263679099443834,0,160.89830875000916,162.34544212500623,1.4471333749970654,main,4
86,3,3,mixed04_level3_block03,11,active,face_absent,face_present,fpa28.png,face,meaningful,rare,,right,top,0.1983532800576545,0.4390175839944277,162.93018333301006,0.4916391669976292,162.98280545799935,standard,0.00728845704927783,std.wav,0.24972929200157523,162.7408951660036,0.2496635419956874,162.74083000000974,0.4916391669976292,162.98280545799935,0.9502395839954261,163.4414057910035,,0.9496635419956874,163.4414069159975,0.7942492171722535,1.7439127591679409,164.2357588330051,,,,,pre_reversal,left,right,163.04666245800036,0.30555508300312795,0,162.3456463330076,164.2357588330051,1.8901124999974854,main,4
87,3,3,mixed04_level3_block03,12,active,face_absent,face_absent,faa10.png,face,ambiguous,frequent,,left,bottom,0.03233033621699882,0.27289012500841636,164.64771341600863,0.49090475001139566,164.8657285829977,standard,0.02567466130452256,std.wav,0.2665019999985816,164.64132545801112,0.2492881250072969,164.62411225000687,0.49090475001139566,164.8657285829977,0.949464707999141,165.32428804101073,,0.9492881250072969,165.3242892499984,0.46183690279589545,1.4111250278031924,165.78657450000173,,,,,pre_reversal,right,left,164.91430254100123,0.2899088749982184,0,164.23593120800797,165.78657450000173,1.5506432919937652,main,4
88,3,3,mixed04_level3_block03,13,active,face_absent,face_absent,faa30.png,face,ambiguous,frequent,,left,bottom,-0.06038398262754785,0.1827516250050394,166.10743450000882,0.42030324999359436,166.34498579100182,standard,-0.1463170117903556,std.wav,0.09399500000290573,166.01867820799816,0.24967308300256263,166.17435612500412,0.49171600000408944,166.41639904100157,0.9506779160001315,166.8753607910039,,0.9496730830025626,166.87536200000613,0.46451198289337664,1.4141850658959392,167.33972933300538,,,,,pre_reversal,right,left,166.4275910830038,0.2529208329942776,0,165.78675020800438,167.33972933300538,1.552979125001002,main,4
89,3,3,mixed04_level3_block03,14,active,face_absent,face_absent,faa24.png,face,ambiguous,frequent,,left,top,-0.05864604638860263,0.18390416698821355,167.53718387499976,0.4222892499965383,167.7755678750109,blank,,,,,0.24230608298967127,167.59558541599836,0.4920281249942491,167.84530800000357,0.9433291249879403,168.29660858299758,,0.9423060829896712,168.2966098330071,0.890835337445723,1.8331414204353942,169.18696216600074,,,,,pre_reversal,right,left,167.98669604099996,0.39078441700257827,0,167.3406605830096,169.18696216600074,1.8463015829911456,main,4
90,3,3,mixed04_level3_block03,15,active,face_absent,face_absent,faa26.png,face,ambiguous,frequent,,left,bottom,-0.016439072729204557,0.23301954100315925,169.56209304100776,0.4638865830056602,169.79295899999852,standard,0.07443009550679996,std.wav,0.3148215830005938,169.64389437501086,0.24952316599956248,169.57859620801173,0.4995266659971094,169.8285995410115,0.949714957998367,170.27878725000483,,0.9495231659995624,170.2787882499979,0.5123641998600719,1.4618873658596343,170.79191491600068,,,,,pre_reversal,right,left,169.85466120800993,0.27578562501003034,0,169.18712791601138,170.79191491600068,1.604786999989301,main,4
91,3,3,mixed04_level3_block03,16,active,face_absent,face_present,fpa02.png,face,meaningful,rare,,right,top,-0.2112102035546625,0.03332349999982398,170.97024575000978,0.26966512500075623,171.20658620800532,standard,-0.23997349223738257,std.wav,0.0010645409929566085,170.93798620800953,0.24167641600070056,171.17859816600685,0.4917022080044262,171.42862404100015,0.9423343329981435,171.87925537500996,,0.9416764160007005,171.87925650000398,0.5691147744863232,1.5107911904870237,172.44862741600082,,,,,pre_reversal,left,left,171.33567941600631,0.15681362499890383,1,170.7920928329986,172.44862741600082,1.6565345830022125,main,4
92,3,3,mixed04_level3_block03,17,active,face_absent,face_absent,faa06.png,face,ambiguous,frequent,,left,top,-0.06323687507358963,0.18293845799053088,172.77009212500707,0.4177459579950664,173.00489908301097,standard,-0.061013470569667994,std.wav,0.1794606249895878,172.76661458300077,0.2497174579912098,172.83687145799922,0.4916718329914147,173.07882558299752,0.9503719579952303,173.53752508301113,,0.9497174579912098,173.53752612500102,0.7572095148402782,1.706926972831488,174.29480920800415,,,,,pre_reversal,right,left,173.08474991600087,0.24762150000606198,0,172.44882025000697,174.29480920800415,1.8459889579971787,main,4
93,3,3,mixed04_level3_block03,18,active,face_absent,face_absent,faa24.png,face,ambiguous,frequent,,left,top,0.17458095429897363,0.41548087500268593,174.85283250000793,0.49090483400505036,174.9282564160094,standard,-0.014083097611037654,std.wav,0.22665545900235884,174.6640079159988,0.24928625000757165,174.68663833300525,0.49090483400505036,174.9282564160094,0.9494379590032622,175.38678970800538,,0.9492862500075716,175.38679079100257,0.6354798214482331,1.5847660714558047,176.02253058300994,,,,,pre_reversal,right,left,174.97346820800158,0.2865593749884283,0,174.2950008330081,176.02253058300994,1.7275297500018496,main,4
94,3,3,mixed04_level3_block03,19,active,face_absent,face_absent,faa04.png,face,ambiguous,frequent,,left,bottom,0.04984493032434506,0.29023829200014006,176.4520135000057,0.4918200000101933,176.6535956660082,standard,0.022220889586564485,std.wav,0.2623603750107577,176.42413608300558,0.2420334170019487,176.40380949999962,0.4918200000101933,176.6535956660082,0.9424357500101905,177.10421116600628,,0.9420334170019486,177.1042122910003,0.8712293465208754,1.813262763522824,177.97531587500998,,,,,pre_reversal,right,left,176.75382725000964,0.3497273750108434,0,176.0227076250012,177.97531587500998,1.9526082500087796,main,4
95,3,3,mixed04_level3_block03,20,active,face_absent,face_absent,faa05.png,face,ambiguous,frequent,,left,bottom,0.1964254230590292,0.4374942499998724,178.55809179099742,0.49158433300908655,178.61218258300505,standard,0.11866593212776289,std.wav,0.3587380000099074,178.47933604101127,0.24931266700150445,178.36991116600984,0.49158433300908655,178.61218258300505,0.9497953329992015,179.07039295800496,,0.9493126670015044,179.07039404100215,0.5008635972301093,1.4501762642316138,179.571340333001,,,,,pre_reversal,right,left,178.7391562910052,0.3689545410015853,0,177.97548370801087,179.571340333001,1.5958566249901196,main,4
96,3,3,mixed04_level3_block03,21,baseline,face_absent,,,,,baseline,,,,,,,,,blank,,,,,,,,,,,179.57826087500143,,,1.3454191194339407,,,,,,,,,,,,,179.57151537500613,180.92372220799734,1.3522068329912145,main,4
97,3,3,mixed04_level3_block03,22,baseline,face_absent,,,,,baseline,,,,,,,,,blank,,,,,,,,,,,180.9285463749984,,,1.2605019149704166,,,,,,,,,,,,,180.92382625000027,182.18911479100643,1.2652885410061572,main,4
98,3,3,mixed04_level3_block03,23,baseline,face_absent,,,,,baseline,,,,,,,,,blank,,,,,,,,,,,182.19528400000127,,,1.5896265365325795,,,,,,,,,,,,,182.18923770800757,183.78492283300147,1.5956851249939064,main,4
99,2,6,mixed05_level2_block06,1,active,face_present,face_present,fpa20.png,face,meaningful,frequent,,left,top,0.12133332038657829,0.36172699999588076,191.1698331660009,0.49932133399124723,191.30742754100356,standard,0.08089256457814059,std.wav,0.3214840419968823,191.12959016600507,0.24992808399838395,191.05803479099995,0.49932133399124723,191.30742754100356,0.9504359169950476,191.75854166600038,,0.9499280839983839,191.75854270800482,0.4617882841316205,1.4117163681300045,192.22066658300173,delayed,0.9505235839897068,191.75863012499758,0.39482549999956973,,left,left,191.36406033299863,0.30576999999175314,1,190.66554545800318,192.22066658300173,1.55512112499855,main,5
100,2,6,mixed05_level2_block06,2,active,face_present,face_present,fpa01.png,face,meaningful,frequent,,left,top,-0.22580774628938974,0.05005008401349187,192.41613562501152,0.25503450000542216,192.62111962500785,standard,-0.19913783664268614,std.wav,0.041336417009006254,192.4074219160102,0.2420363340061158,192.60812208300922,0.4834667920076754,192.84955220800475,0.9424418750131736,193.30852704100835,,0.9420363340061157,193.30852816600236,0.6704102558035161,1.6124465898096318,193.97861833299976,immediate,0.4587498340115417,192.8248352080118,0.00036991700471844524,,left,left,192.82474470800662,0.21634358300070744,1,192.2208210000099,193.97861833299976,1.7577973329898668,main,5
101,2,6,mixed05_level2_block06,3,active,face_present,face_present,fpa03.png,face,meaningful,frequent,,left,top,0.18385665903916776,0.4247225410072133,194.54944329100545,0.49158837500726804,194.61630920800962,standard,-0.18451312582084686,std.wav,0.055790958009311,194.18051262501103,0.24938704099622555,194.37410812500457,0.49158837500726804,194.61630920800962,0.9503389160090592,195.07505979100824,,0.9493870409962255,195.07506083299813,0.7641571254263615,1.713544166422587,195.8391910000064,delayed,0.9504244160052622,195.0751452500117,0.46570600000268314,,left,left,194.60968354099896,0.23533137500635348,1,193.97879416600335,195.8391910000064,1.8603968340030406,main,5
102,2,6,mixed05_level2_block06,4,active,face_present,face_absent,faa01.png,face,ambiguous,rare,,right,bottom,0.1313969977080262,0.3716160409967415,196.35431195799902,0.49138379099895246,196.4740795000107,standard,-0.1285891309999284,std.wav,0.11147966599673964,196.0941765410098,0.2421048329997575,196.22480087500298,0.49138379099895246,196.4740795000107,0.9426948749896837,196.92539362500247,,0.9421048329997574,196.92539491600473,0.7025560673279532,1.6446609003277106,197.62783895801113,delayed,0.9427874579996569,196.92548391599848,0.39064233300450724,,right,right,196.53510708300746,0.3100402919953922,1,195.8393763750064,197.62783895801113,1.7884625830047298,main,5
103,2,6,mixed05_level2_block06,5,active,face_present,face_absent,faa02.png,face,ambiguous,rare,,right,top,0.13875458711870786,0.379601458000252,198.1541142500064,0.4997790420020465,198.27429237500473,standard,-0.11739601085539791,std.wav,0.123604249994969,197.89811799999734,0.2498203330032993,198.0243339160079,0.4997790420020465,198.27429237500473,0.9501790829963284,198.72469187500246,,0.9498203330032993,198.72469300001103,0.8564137451989695,1.8062340782022688,199.58152691600844,immediate,0.5196491249953397,198.29416204099834,0.0003521249891491607,,right,right,198.2940905830037,0.2694766670028912,1,197.62839908299793,199.58152691600844,1.9531278330105124,main,5
104,2,6,mixed05_level2_block06,6,active,face_present,face_present,fpa19.png,face,meaningful,frequent,,left,bottom,-0.06791152351404453,0.17451925000932533,199.8992524159985,0.41217241699632723,200.1369046660111,standard,0.034442620505229005,std.wav,0.27550808399973903,200.00024079100695,0.2496125000034226,199.97434541600524,0.49117366700374987,200.21590658300556,0.9504548340046313,200.6751869580039,,0.9496125000034226,200.67518795801152,0.2596196823226844,1.209232182326107,200.93407437500719,immediate,0.5146571250079433,200.23938954100595,0.00039866600127425045,,left,left,200.23931241600076,0.2646459590032464,1,199.5817019160022,200.93407437500719,1.3523724590049824,main,5
105,2,6,mixed05_level2_block06,7,active,face_present,face_present,fpa08.png,face,meaningful,frequent,,left,top,0.0017958142452584869,0.25032620900310576,201.32443262499874,0.4818440420058323,201.55595066600654,deviant,0.018500507557147106,deviant.wav,0.25969245900341775,201.33379920800508,0.250254375001532,201.32436191600573,0.49180816700391006,201.56591533300525,0.9513175419997424,202.02542408301088,,0.950254375001532,202.02542512500077,0.27649177226301636,1.2267461472645484,202.30165212501015,delayed,1.0599383340013446,202.1340458330087,0.49606383399805054,,left,left,201.63826283300295,0.31362012500176206,1,200.93425329100864,202.30165212501015,1.3673988340015057,main,5
106,2,6,mixed05_level2_block06,8,active,face_present,face_present,fpa28.png,face,meaningful,frequent,,left,bottom,0.001841821743816835,0.24184700001205783,202.68266083300114,0.4832287500030361,202.92404345799878,standard,-0.19956510908295527,std.wav,0.041299917007563636,202.48211450000235,0.24178116700204555,202.68259562501044,0.4832287500030361,202.92404345799878,0.9423327920085285,203.38314712500141,,0.9417811670020455,203.3831484580005,0.3374312603949911,1.2792124273970367,203.72086979101005,immediate,0.5234917089983355,202.96430595799757,0.00036366698623169214,,left,left,202.96422495800653,0.2813468750100583,1,202.3018143750087,203.72086979101005,1.4190554160013562,main,5
107,2,6,mixed05_level2_block06,9,active,face_present,face_present,fpa05.png,face,meaningful,frequent,,left,bottom,-0.019165405078454656,0.22497499999008141,204.09103720801068,0.4610826249991078,204.3271440410026,standard,-0.07000296549444052,std.wav,0.17074112499540206,204.0368034580024,0.24191941699245945,204.10798137501115,0.4832721249986207,204.34933399999863,0.9423243749915855,204.8083858750033,,0.9419194169924594,204.8083869999973,0.5500273499562416,1.491946766948701,205.3583428330021,delayed,1.014669916999992,204.8807318330073,0.490893167007016,,left,left,204.39011345800827,0.2818573330005165,1,203.7210397500021,205.3583428330021,1.6373030830000062,main,5
108,2,6,mixed05_level2_block06,10,active,face_present,face_present,fpa23.png,face,meaningful,frequent,,left,bottom,-0.13471391658244622,0.2415657910023583,205.7410359159985,0.34540649999689776,205.84487554100633,standard,-0.004703994374145676,std.wav,0.23593158299627248,205.7354015410092,0.25012745799904224,205.749597291011,0.4956513749930309,205.99512079100532,0.9508839579939377,206.4503530410002,,0.9501274579990422,206.45035408300464,0.3225508500268838,1.272678308025926,206.77242258300248,immediate,0.5276095829904079,206.02707900000678,0.0003873329987982288,,left,left,206.02699945800123,0.2770947919925675,1,205.3585302499996,206.77242258300248,1.4138923330028774,main,5
109,2,6,mixed05_level2_block06,11,active,face_present,face_present,fpa21.png,face,meaningful,frequent,,left,bottom,-0.06400503407224864,0.18302758400386665,207.09490170799836,0.41695491700374987,207.32882841600804,standard,0.13826191654346098,std.wav,0.3783415420039091,207.29021554099745,0.24995924999529961,207.16183295800874,0.4997070840036031,207.41158066599746,0.9507763750007143,207.8626494580094,,0.9499592499952996,207.8626504999993,0.3404232378710421,1.2903824878663417,208.2031084580085,delayed,0.9949307089991635,207.90680437500123,0.3657794169994304,,left,left,207.54130512500706,0.37919204200443346,1,206.77259216600214,208.2031084580085,1.4305162920063594,main,5
110,2,6,mixed05_level2_block06,12,active,face_present,face_present,fpa13.png,face,meaningful,frequent,,left,top,-0.14998194542166826,0.0999219160003122,208.4451519580034,0.3302768749999814,208.67550658300752,standard,-0.1982333782647053,std.wav,0.042271874990547076,208.3875025830057,0.24182866599585395,208.58705875001033,0.4837259579944657,208.8289568330074,0.9420844159903936,209.28731445800804,,0.9418286659958539,209.28731591600808,0.7356951309600022,1.677523796955856,210.02304458300932,immediate,0.6026309159933589,208.94786091599963,0.0003524999920045957,,left,left,208.94778233300894,0.3604497500055004,1,208.2032765410113,210.02304458300932,1.8197680419980315,main,5
111,2,6,mixed05_level2_block06,13,active,face_present,face_present,fpa06.png,face,meaningful,frequent,,left,top,-0.11484408175268734,0.1327370420040097,210.29489150000154,0.3660429169976851,210.52819720799744,standard,-0.17325592352835226,std.wav,0.06715075000829529,210.22930600000836,0.2496620830061147,210.4118166249973,0.4911926670029061,210.65334758300742,0.9502129169995897,211.11236729100347,,0.9496620830061147,211.11236829101108,0.42674276651715326,1.376404849523268,211.53858891600976,immediate,0.4996237919986015,210.66177829100343,0.0003589169937185943,,left,left,210.66169979100232,0.24960279199876823,1,210.02320304101158,211.53858891600976,1.5153858749981737,main,5
112,2,6,mixed05_level2_block06,14,active,face_present,face_absent,faa25.png,face,ambiguous,rare,,right,top,-0.23482801285147017,0.008621792003395967,211.5534784580086,0.2501243750011781,211.79498075001175,blank,,,,,0.2500560000044061,211.79491312500613,0.49211637499684,212.03697337499761,0.9509135830012383,212.4957705410052,,0.950056000004406,212.4957720000093,0.5334312521580569,1.483487252162463,213.0290962500003,immediate,0.5713743329979479,212.11623100000725,0.00035933300387114286,,right,right,212.11615429099766,0.3209589999896707,1,211.53875829100434,213.0290962500003,1.4903379589959513,main,5
113,2,6,mixed05_level2_block06,15,active,face_present,face_present,fpa09.png,face,meaningful,frequent,,left,top,0.049955717718861425,0.2901686669938499,213.46067762500024,0.49101404199609533,213.66152320800757,standard,-0.15810941806111217,std.wav,0.08282654199865647,213.2533358750079,0.24937570799374953,213.41988495799887,0.49101404199609533,213.66152320800757,0.9498694579961011,214.12037808301102,,0.9493757079937495,214.12037920800503,0.4760935978896653,1.4254693058834147,214.5961916660017,delayed,0.9860112079913961,214.15652033301012,0.3866885000024922,,left,left,213.77015662500344,0.34994699999515433,1,213.02924104100384,214.5961916660017,1.566950624997844,main,5
114,2,6,mixed05_level2_block06,16,active,face_present,face_present,fpa22.png,face,meaningful,frequent,,left,bottom,-0.16765338111472466,0.07467570800508838,214.81155004100583,0.31336654200276826,215.05024020800192,deviant,0.05627377202692624,deviant.wav,0.2972083750064485,215.03408241600846,0.24990729200362694,214.98678158300754,0.491321458001039,215.22819570799766,0.9508282080059871,215.68770233300165,,0.9499072920036269,215.68770375000895,0.767878468007265,1.717785760010892,216.45478920800088,delayed,1.0147387080069166,215.75161295800353,0.45285195800533984,,left,left,215.2990342080011,0.3119794579979498,1,214.59633833300904,216.45478920800088,1.8584508749918314,main,5
115,2,6,mixed05_level2_block06,17,active,face_present,face_present,fpa14.png,face,meaningful,frequent,,left,bottom,-0.08558380909211766,0.15759620800963603,216.75320741601172,0.3949209999991581,216.99053241600632,standard,-0.23033611961271255,std.wav,0.010408957998151891,216.6060205410031,0.24957779100805055,216.8451893330057,0.49100108300626744,217.08661258300708,0.9504965829983121,217.5461076250067,,0.9495777910080505,217.54610883300484,0.3812989009789166,1.3308766919869672,217.9274937910086,delayed,0.9925826249964302,217.58819433300232,0.463701291999314,,left,left,217.12477362500795,0.2793035419890657,1,216.45496633301082,217.9274937910086,1.472527457997785,main,5
116,2,6,mixed05_level2_block06,18,active,face_present,face_present,fpa10.png,face,meaningful,frequent,,left,top,0.007305696710449311,0.2482682090048911,218.31843800000206,0.491630417003762,218.56180091600982,standard,0.1241629437457607,std.wav,0.36524887500854675,218.43541925000318,0.2418163749971427,218.31198700000823,0.491630417003762,218.56180091600982,0.9427495419949992,219.01291941601085,,0.9418163749971427,219.01292054100486,0.32977755897837313,1.2715939339755158,219.3422522500041,immediate,0.5607312920037657,218.63090204101172,0.0003711669996846467,,left,left,218.63082441600272,0.31854375000693835,1,217.92765904100088,219.3422522500041,1.4145932090032147,main,5
117,2,6,mixed05_level2_block06,19,active,face_present,face_absent,faa16.png,face,ambiguous,rare,,right,top,0.14279408717062853,0.3837147919985,219.8874709160009,0.48332058399682865,219.98707724999986,standard,0.026650173508147634,std.wav,0.2676353340066271,219.77139175000775,0.24181420900276862,219.7455712910014,0.48332058399682865,219.98707724999986,0.9428765420016134,220.44663299999957,,0.9418142090027686,220.44663437501004,0.7352951965351526,1.6771094055379212,221.18104754100204,delayed,0.9429642500035698,220.44672104100755,0.4322192500112578,,right,right,220.01478537500952,0.2689307909895433,1,219.34241545799887,221.18104754100204,1.8386320830031764,main,5
118,2,6,mixed05_level2_block06,20,active,face_present,face_present,fpa17.png,face,meaningful,frequent,,left,top,0.1921636238846099,0.43276441599300597,221.61971958300273,0.483515375002753,221.6704710000049,blank,,,,,0.2416911250038538,221.4286469580111,0.483515375002753,221.6704710000049,0.9420116660039639,222.1289667910023,,0.9416911250038538,222.12896787500358,0.632249669462445,1.5739407944662989,222.76137270800245,immediate,0.5048049159959191,221.69176033300755,0.00036449999606702477,,left,left,221.69168212500517,0.2627492909959983,1,221.181203250002,222.76137270800245,1.580169458000455,main,5
119,2,6,mixed05_level2_block06,21,baseline,face_present,,,,,baseline,,,,,,,,,blank,,,,,,,,,,,222.77018441600376,,,1.2064944552719106,,,,,,,,,,,,,222.7615193750098,223.97673208299966,1.2152127079898492,main,5
120,2,6,mixed05_level2_block06,22,baseline,face_present,,,,,baseline,,,,,,,,,blank,,,,,,,,,,,223.97932029100775,,,1.100571450795243,,,,,,,,,,,,,223.976837041002,225.07994345801126,1.1031064170092577,main,5
121,2,6,mixed05_level2_block06,23,baseline,face_present,,,,,baseline,,,,,,,,,blank,,,,,,,,,,,225.08655345800798,,,1.5875702163472427,,,,,,,,,,,,,225.08004458301002,226.6741515830072,1.594106999997166,main,5
122,3,1,mixed06_level3_block01,1,active,face_present,face_present,fpa14.png,face,meaningful,frequent,,right,top,-0.07779537325911262,0.19101912499172613,227.03236950001155,0.4029886659991462,227.24433837500692,standard,-0.05551414253974485,std.wav,0.1852646250044927,227.02661541600537,0.24970933300210163,227.0910601659998,0.4996059580007568,227.34095595800318,0.9502229999925476,227.79157316600322,,0.9497093330021016,227.79157429101178,0.4376567091996846,1.3873660422017862,228.22969416600245,,,,,pre_reversal,left,right,227.3866145409993,0.29526099999202415,0,226.67427491600392,228.22969416600245,1.555419249998522,main,6
123,3,1,mixed06_level3_block01,2,active,face_present,face_absent,faa22.png,face,ambiguous,rare,,left,bottom,0.05466228327805439,0.2950090829981491,228.66933479100408,0.4916967909957748,228.8660231660033,standard,-0.07515074067118216,std.wav,0.16530516599596012,228.53963145799935,0.24998370799585246,228.62430999999924,0.4916967909957748,228.8660231660033,0.9507300409895834,229.3250557910069,,0.9499837079958524,229.32505687500816,0.8169540013796102,1.7669377093754626,230.14135895800428,,,,,pre_reversal,right,left,228.90762579100556,0.2830312500009313,0,228.22985366600915,230.14135895800428,1.9115052919951268,main,6
124,3,1,mixed06_level3_block01,3,active,face_present,face_absent,faa07.png,face,ambiguous,rare,,left,top,0.12468498821587892,0.3653417080058716,230.64843870799814,0.49091704199963715,230.77401437499793,standard,-0.19898818507308924,std.wav,0.04134224999870639,230.32444000001124,0.24958854200667702,230.53268641600152,0.49091704199963715,230.77401437499793,0.9500237920001382,231.2331208329997,,0.949588542006677,231.2331220000051,0.8740219672415281,1.8236105092482051,232.1074133330112,,,,,pre_reversal,right,left,230.83059416600736,0.2976162499981001,0,230.14154641600908,232.1074133330112,1.9658669170021312,main,6
125,3,1,mixed06_level3_block01,4,active,face_present,face_present,fpa05.png,face,meaningful,frequent,,right,top,-0.15959203641298542,0.21588254199014045,232.46572558300977,0.32098983399919234,232.5708327080065,standard,-0.03205456833860304,std.wav,0.20859758400183637,232.45844129100442,0.24943145900033414,232.49927483301144,0.49944583399337716,232.74928937500226,0.9501690420001978,233.20001233300718,,0.9494314590003341,233.2000134580012,0.7298551866713219,1.679286645671656,233.92959279099887,,,,,pre_reversal,left,right,232.77019908301008,0.2706393330008723,0,232.10759879100078,233.92959279099887,1.8219939999980852,main,6
126,3,1,mixed06_level3_block01,5,active,face_present,face_present,fpa24.png,face,meaningful,frequent,,right,bottom,0.14887643710994997,0.38898720798897557,234.46380841601058,0.49136404099408537,234.56618566600082,standard,0.10121973286910124,std.wav,0.3418347080005333,234.4166564160114,0.24945616599870846,234.32427804100735,0.49136404099408537,234.56618566600082,0.9500806249998277,235.02490183300688,,0.9494561659987084,235.02490287501132,0.6155747259845974,1.5650308919833058,235.64066725000157,,,,,pre_reversal,left,right,234.62042858300265,0.29588341699854936,0,233.92975650000153,235.64066725000157,1.7109107500000391,main,6
127,3,1,mixed06_level3_block01,6,active,face_present,face_present,fpa18.png,face,meaningful,frequent,,right,top,0.1736513337417489,0.4139889999933075,236.19694045800134,0.49169358299695887,236.27464545800467,standard,0.1315915331045207,std.wav,0.3723469159886008,236.15529870800674,0.2496622079925146,236.03261408300023,0.49169358299695887,236.27464545800467,0.9501346249890048,236.7330861250084,,0.9496622079925146,236.7330872080056,0.4367964259262942,1.3864586339188087,237.1701090830029,,,,,pre_reversal,left,right,236.33117658300034,0.2982821250043344,0,235.6408315000008,237.1701090830029,1.5292775830021128,main,6
128,3,1,mixed06_level3_block01,7,active,face_present,face_present,fpa01.png,face,meaningful,frequent,,right,top,0.08448576506346434,0.32497587498801295,237.50758137500088,0.4916654589906102,237.67427162500098,blank,,,,,0.24167241698887665,237.42427875001158,0.4916654589906102,237.67427162500098,0.9418624589889077,238.12446804100182,,0.9416724169888766,238.1244691250031,0.7271213589169243,1.668793775905801,238.85189083300065,,,,,pre_reversal,left,right,237.74996154100518,0.32497020800656173,0,237.17028633299924,238.85189083300065,1.6816045000014128,main,6
129,3,1,mixed06_level3_block01,8,active,face_present,face_present,fpa19.png,face,meaningful,frequent,,right,top,-0.07136339120026158,0.17430591699667275,239.190960500011,0.4086770840076497,239.42533091599762,standard,-0.17818303780671055,std.wav,0.06191150000086054,239.07856687500316,0.2493430839967914,239.26599749999878,0.4908962920017075,239.50755079100782,0.9495712920033839,239.96622587500315,,0.9493430839967913,239.96622729100636,0.3082811305949596,1.2576242145917509,240.27494291600306,,,,,pre_reversal,left,right,239.5371249160089,0.2708344160055276,0,238.85203208299936,240.27494291600306,1.422910833003698,main,6
130,3,1,mixed06_level3_block01,9,active,face_present,face_absent,faa30.png,face,ambiguous,rare,,left,top,0.11016229195024746,0.35030695899331477,240.79140483299852,0.48320316699391697,240.9243015000102,standard,-0.1677450070972994,std.wav,0.07255058399459813,240.5136491660087,0.2414088749937946,240.68250754100154,0.48320316699391697,240.9243015000102,0.9420569999929285,241.38315479100856,,0.9414088749937946,241.38315591600258,0.46727894632330713,1.4086878213171017,241.84991266600264,,,,,pre_reversal,right,left,240.99528683300014,0.3124892500054557,0,240.27510933300073,241.84991266600264,1.5748033330019098,main,6
131,3,1,mixed06_level3_block01,10,active,face_present,face_present,fpa01.png,face,meaningful,frequent,,right,bottom,-0.11700304667216874,0.16661670900066383,242.1576229580096,0.3636737920023734,242.3546797500021,standard,-0.08205688677398276,std.wav,0.15841391700087115,242.1494205830095,0.24172674999863375,242.23273316600535,0.4830989589972887,242.474105375004,0.9418823339947267,242.93288829100493,,0.9417267499986337,242.93288941599894,0.28865730410263185,1.2303840541012656,243.2217143750022,,,,,pre_reversal,left,right,242.51032595800643,0.2773037500010105,0,241.8501034159999,243.2217143750022,1.3716109590022825,main,6
132,3,1,mixed06_level3_block01,11,active,face_present,face_present,fpa11.png,face,meaningful,frequent,,right,bottom,-0.0900751606933527,0.15855241600365844,243.54097291600192,0.3900533749983879,243.77247316599824,standard,0.05839280783820383,std.wav,0.29860829100653064,243.6810286250111,0.24163037500693463,243.62405083300837,0.48369387500861194,243.8661142080091,0.9425498750060797,244.32496970800275,,0.9416303750069346,244.3249707500072,0.7950021601566695,1.736632535163604,245.11958550001145,,,,,pre_reversal,left,right,243.9200104160118,0.295682083000429,0,243.22188191600435,245.11958550001145,1.897703584007104,main,6
133,3,1,mixed06_level3_block01,12,active,face_present,face_present,fpa25.png,face,meaningful,frequent,,right,top,-0.23260817319618354,0.01619416699395515,245.29933212501055,0.24809279199689627,245.53122987500683,standard,0.00970706394716403,std.wav,0.25041049999708775,245.53354783300892,0.24158649999299087,245.52472420800768,0.4829417500004638,245.76607900000818,0.9417502090072958,246.2248872909986,,0.9415864999929908,246.22488841600716,0.33771704231448374,1.2793035423074746,246.56284691600013,,,,,pre_reversal,left,right,245.77317625000433,0.24817845900543034,0,245.11977087501145,246.56284691600013,1.4430760409886716,main,6
134,3,1,mixed06_level3_block01,13,active,face_present,face_present,fpa17.png,face,meaningful,frequent,,right,bottom,-0.22680538058567126,0.016928750002989545,246.59098004100088,0.25359691701305564,246.8276442080096,blank,,,,,0.24178720801137388,246.81583529101044,0.48338683300244156,247.05743454099866,0.9427060830057599,247.51675379100197,,0.9417872080113738,247.51675491601054,0.28713909156071077,1.2289262995720847,247.80396312499943,,,,,pre_reversal,left,right,247.1300137500075,0.31392504199175164,0,246.5630224159977,247.80396312499943,1.240940709001734,main,6
135,3,1,mixed06_level3_block01,14,active,face_present,face_present,fpa12.png,face,meaningful,frequent,,right,bottom,-0.08004783959431652,0.1663194169959752,248.1323774580087,0.4009138749970589,248.36697104100313,standard,-0.20051988595292794,std.wav,0.0402845419885125,248.00634266600537,0.2499461249972228,248.21600366600615,0.49142183299409226,248.45747966600175,0.9509590829984518,248.9170166660042,,0.9499461249972228,248.9170180830115,0.5182285962698279,1.4681747212670506,249.43437754100887,,,,,pre_reversal,left,right,248.48287333300686,0.2666020829929039,0,247.80411558299966,249.43437754100887,1.6302619580092141,main,6
136,3,1,mixed06_level3_block01,15,active,face_present,face_present,fpa23.png,face,meaningful,frequent,,right,top,0.16797599006000186,0.40832041700195987,250.00794970800052,0.4913346669927705,250.09096450000652,deviant,-0.15589158007229748,deviant.wav,0.08422925000195391,249.68385929100623,0.2416920840041712,249.84132195801067,0.4913346669927705,250.09096450000652,0.9424895419942914,250.5421197500109,,0.9416920840041711,250.54212116599956,0.7820708493992068,1.723762933403378,251.32355004100828,,,,,pre_reversal,left,right,250.15591233300802,0.31430079099664,0,249.43456191600126,251.32355004100828,1.8889881250070175,main,6
137,3,1,mixed06_level3_block01,16,active,face_present,face_absent,faa09.png,face,ambiguous,rare,,left,top,0.08063530833573573,0.32073445900459774,251.80396962500527,0.4908256250055274,251.97406120800588,standard,-0.11010121529098962,std.wav,0.13039712500176392,251.61363370800973,0.24939149999408983,251.73262725000677,0.4908256250055274,251.97406120800588,0.9500682920042891,252.433303333004,,0.9493914999940898,252.43330433301162,0.7706065096376937,1.7199980096317835,253.20340429100906,,,,,pre_reversal,right,left,251.94402320800873,0.21111562500300352,0,251.32373258299776,253.20340429100906,1.8796717080113012,main,6
138,3,1,mixed06_level3_block01,17,active,face_present,face_present,fpa16.png,face,meaningful,frequent,,right,bottom,-0.16233692448310616,0.08296820800751448,253.44930670800386,0.31799229100579396,253.68433029099833,standard,-0.22408196195384997,std.wav,0.016483416009577923,253.38282254101068,0.24938275000022259,253.61572120799974,0.4913529580080649,253.85769141600758,0.949820666006417,254.31615858300938,,0.9493827500002225,254.3161597080034,0.870515625179469,1.8198983751796916,255.18652575000306,,,,,pre_reversal,left,right,253.80406254100672,0.18805791600607336,0,253.20361483300803,255.18652575000306,1.9829109169950243,main,6
139,3,1,mixed06_level3_block01,18,active,face_present,face_present,fpa24.png,face,meaningful,frequent,,right,top,0.02872926884389343,0.2688774580019526,255.63109424999857,0.49953145800100174,255.86174837499857,standard,0.1107623243248474,std.wav,0.35098116600420326,255.71319883300748,0.24954833299852908,255.61176570800308,0.49953145800100174,255.86174837499857,0.950123957998585,256.3123407910025,,0.949548332998529,256.3123417910101,0.44758051162797874,1.3971288446265078,256.75997795800504,,,,,pre_reversal,left,right,255.90977616600867,0.29772279200551566,0,255.1867135000066,256.75997795800504,1.573264457998448,main,6
140,3,1,mixed06_level3_block01,19,active,face_present,face_present,fpa11.png,face,meaningful,frequent,,right,bottom,-0.1272684188481225,0.18351516699476633,257.1033882500051,0.35318229199037887,257.27305479100323,standard,-0.06508304448398089,std.wav,0.17526816698955372,257.09514154100907,0.24200941699382383,257.16188250000414,0.48341524999705143,257.40328825000324,0.9424132499989355,257.8622857080045,,0.9420094169938238,257.8622867910017,0.7190464582988454,1.6610558752926692,258.58105354099825,,,,,pre_reversal,left,right,257.44388491600694,0.28170795799815096,0,256.76014837500406,258.58105354099825,1.8209051659941906,main,6
141,3,1,mixed06_level3_block01,20,active,face_present,face_present,fpa24.png,face,meaningful,frequent,,right,bottom,-0.09730810355080602,0.14994724999996834,258.8954921250115,0.38370387500617653,259.12924762500916,deviant,-0.11339416459829285,deviant.wav,0.1270243750041118,258.87256916600745,0.25377879200095776,258.99932320800144,0.495103791996371,259.2406482080114,0.9546533340035239,259.7001972080034,,0.9537787920009577,259.70019837500877,0.3171281892601169,1.2709069812610747,260.01735283300513,,,,,pre_reversal,left,right,259.25190554100845,0.2522981670044828,0,258.5812222079985,260.01735283300513,1.4361306250066264,main,6
142,3,1,mixed06_level3_block01,21,baseline,face_present,,,,,baseline,,,,,,,,,blank,,,,,,,,,,,260.02400266600307,,,1.379422308804002,,,,,,,,,,,,,260.0175415410049,261.4034762079973,1.385934666992398,main,6
143,3,1,mixed06_level3_block01,22,baseline,face_present,,,,,baseline,,,,,,,,,blank,,,,,,,,,,,261.4076529580052,,,1.4278181438432562,,,,,,,,,,,,,261.40357604100427,262.835491750011,1.4319157090067165,main,6
144,3,1,mixed06_level3_block01,23,baseline,face_present,,,,,baseline,,,,,,,,,blank,,,,,,,,,,,262.8409345000109,,,1.48783251913687,,,,,,,,,,,,,262.8356043329986,264.3288276250096,1.4932232920109527,main,6
145,2,7,mixed07_level2_block07,1,active,face_present,face_present,fpa04.png,face,meaningful,frequent,,right,top,-0.004444041809441357,0.23732795899559278,276.8700509580085,0.47598041700257454,277.1087026660098,standard,0.13694511905445006,std.wav,0.3779119999962859,277.01063441600127,0.24574095899879467,276.87846375000663,0.48732420899614226,277.1200469160103,0.9461049999954412,277.5788275829982,,0.9457409589987946,277.5788290000055,0.6644910599638875,1.610232018962682,278.2435083330056,immediate,0.5776747499912744,277.21039720800763,0.0003604160010581836,,right,right,277.2103169160109,0.3315733749914216,1,276.4697262910049,278.2435083330056,1.7737820420006756,main,7
146,2,7,mixed07_level2_block07,2,active,face_present,face_present,fpa30.png,face,meaningful,frequent,,right,top,-0.16964927410249842,0.1243680830084486,278.5281214160059,0.31114270800026134,278.71489579101035,standard,-0.12400323926322393,std.wav,0.11658975000318605,278.52034408300824,0.24165750000975095,278.64541116599867,0.4913158750132425,278.8950694160012,0.9422926250117598,279.3460457080073,,0.9416575000097509,279.34604675001174,0.6724993728610368,1.6141568728707876,280.01867141600815,immediate,0.4228306250006426,278.82658458300284,0.0003437919949647039,,right,left,278.8265127909981,0.18082933299592696,0,278.2436966660025,280.01867141600815,1.77497475000564,main,7
