trial_global_index,level,block,block_name,trial_in_block,trial_type,standard_category,stimulus_category,stimulus_file,stimulus_family,stimulus_meaning,frequency_class,omitted_category,target_side,visual_distractor_pos,visual_distractor_offset_s,visual_distractor_onset_s,visual_distractor_onset_global_s,visual_distractor_offset_time_s,visual_distractor_offset_global_s,auditory_class,auditory_offset_s,paired_tone_file,paired_tone_onset_s,paired_tone_onset_global_s,visual_onset_s,visual_onset_global_s,visual_offset_s,visual_offset_global_s,response_window_end_s,response_window_end_global_s,baseline_onset_global_s,post_mask_start_s,post_mask_start_global_s,post_mask_duration_s,post_mask_end_s,post_mask_end_global_s,corollary_mode,cd_condition,cd_feedback_onset_s,cd_feedback_onset_global_s,corollary_onset_s,corollary_onset_global_s,cd_feedback_delay_from_response_s,corollary_delay_from_response_s,reversal_phase,correct_response,response,response_onset_global_s,rt_s,accuracy,trial_start_global_s,trial_end_global_s,trial_duration_s,phase,mixed_block_index
1,2,0,practice_level2,1,active,face_present,face_present,fpa01.png,face,meaningful,frequent,shape_present,left,top,,0.24969233300362248,44.374689833995944,0.49964475000160746,44.62464208399615,standard,-0.049558787932222265,std.wav,0.19109970799763687,44.31609699999535,0.24969233300362248,44.374689833995944,0.49964475000160746,44.62464208399615,0.950365041004261,45.075362374998804,,0.9496923330036224,45.07536391699978,0.24085978289790133,1.1905521159015238,45.31600875000004,delayed,cd_delayed,1.092195666002226,45.217193874996156,1.092195666002226,45.217193874996156,0.4888960410025902,,,left,left,44.72857370899874,0.3536072919960134,1,44.00149599999713,45.31600875000004,1.3145127500029048,practice,
2,2,0,practice_level2,2,active,face_present,face_present,fpa25.png,face,meaningful,frequent,shape_present,left,top,,0.24994808300107252,45.574649958994996,0.49995037500048056,45.82465233399853,blank,,,,,0.24994808300107252,45.574649958994996,0.49995037500048056,45.82465233399853,0.9505412080034148,46.27524241699575,,0.9499480830010725,46.27524370899482,0.32379284429596716,1.2737409272970397,46.5989425000007,immediate,cd_immediate,0.7084686660018633,46.03317058399989,0.7084686660018633,46.03317058399989,0.00037195799814071506,0.00037195799814071506,,left,left,46.03307487499842,0.4581486250026501,1,45.31620658400061,46.5989425000007,1.2827359160000924,practice,
3,2,0,practice_level2,3,active,face_present,shape_absent,nknz_wob.png,shape,ambiguous,rare,shape_present,right,bottom,,0.2499635420026607,46.96633058400039,0.4920875829993747,47.20845470899803,standard,-0.14695341043067647,std.wav,0.0935696669985191,46.80993624999974,0.2499635420026607,46.96633058400039,0.4920875829993747,47.20845470899803,0.9503312919987366,47.66669745899708,,0.9499635420026606,47.666698458997416,0.4572076965049443,1.407171238507605,48.123730708997755,delayed,cd_delayed,1.2794659580031293,47.99583254200115,1.2794659580031293,47.99583254200115,,,,right,,,,0,46.59908895899571,48.123730708997755,1.524641750002047,practice,
4,2,0,practice_level2,4,active,face_present,face_absent,faa18.png,face,ambiguous,rare,shape_present,right,top,,0.24177320900344057,48.3747907500001,0.4833041250021779,48.61632170899975,blank,,,,,0.24177320900344057,48.3747907500001,0.4833041250021779,48.61632170899975,0.9418247089997749,49.07484137499705,,0.9417732090034405,49.07484237499739,0.5728768370412025,1.514650046044643,49.64845004199742,immediate,cd_immediate,0.7225488340045558,48.855566583995824,0.7225488340045558,48.855566583995824,0.00040329200419364497,0.00040329200419364497,,right,left,48.85545129199454,0.4803723329969216,0,48.123880916995404,49.64845004199742,1.5245691250020172,practice,
5,3,0,practice_level3,1,active,face_present,face_present,fpa17.png,face,meaningful,frequent,shape_present,left,bottom,,0.24997441600135062,58.599692874995526,0.49173883300682064,58.841457167000044,deviant,-0.20243393190827957,deviant.wav,0.03821358300046995,58.38793254199845,0.24997441600135062,58.599692874995526,0.49173883300682064,58.841457167000044,0.9510278750021826,59.30074595900078,,0.9499744160013506,59.30074745899765,0.7593018516551873,1.7092762676565378,60.05911087500135,delayed,cd_delayed,0.9511045410035877,59.30082262499491,0.9511045410035877,59.30082262499491,0.42163787499885075,,post_reversal,right,left,58.87946912500047,0.2794922500033863,0,58.227849416995014,60.05911087500135,1.8312614580063382,practice,
6,3,0,practice_level3,2,active,face_present,face_present,fpa27.png,face,meaningful,frequent,shape_present,left,top,,0.24932658399484353,60.43271754199668,0.4914807499953895,60.67487170900131,standard,-0.16042434363058364,std.wav,0.08018904199707322,60.263579916994786,0.24932658399484353,60.43271754199668,0.4914807499953895,60.67487170900131,0.9502894170000218,61.13367970899708,,0.9493265839948435,61.13368070899742,0.8214963073831307,1.7708228913779742,61.95436870899721,none,cd_none,,,,,,,post_reversal,right,left,60.69552583399491,0.262525166006526,0,60.06003362499905,61.95436870899721,1.8943350839981576,practice,
7,3,0,practice_level3,3,active,face_present,face_present,fpa10.png,face,meaningful,frequent,shape_present,left,top,,0.24189299999852665,62.31686799999443,0.4915600410022307,62.566535334000946,deviant,-0.16410736618549177,deviant.wav,0.07655612500093412,62.15153087499493,0.24189299999852665,62.31686799999443,0.4915600410022307,62.566535334000946,0.9429426659989986,63.017916791999596,,0.9418929999985266,63.017917791999935,0.6666093755670595,1.608502375565586,63.68425874999957,none,cd_none,,,,,,,post_reversal,right,left,62.64443566699629,0.32727012500254204,0,61.95454558399797,63.68425874999957,1.729713166001602,practice,
8,3,0,practice_level3,4,active,face_present,face_absent,faa20.png,face,ambiguous,rare,shape_present,right,top,,0.2417871669968008,64.04999758399936,0.4911573749996023,64.299367874999,standard,-0.18352306909719354,std.wav,0.05689795899525052,63.86510841699783,0.2417871669968008,64.04999758399936,0.4911573749996023,64.299367874999,0.942639249995409,64.75084904200048,,0.9417871669968008,64.75085008399765,0.3785972743329645,1.3203844413297652,65.12940004199481,none,cd_none,,,,,,,post_reversal,left,,,,0,63.68443179199676,65.12940004199481,1.4449682499980554,practice,
9,3,5,mixed01_level3_block05,1,active,shape_present,shape_present,knz_bow.png,shape,meaningful,frequent,shape_absent,left,top,,0.24941712500003632,70.87016404199676,0.4956119580019731,71.11635895899963,deviant,0.15065253700320996,deviant.wav,0.391706875001546,71.01245329199446,0.24941712500003632,70.87016404199676,0.4956119580019731,71.11635895899963,0.9500088330023573,71.57075554200128,,0.9494171250000363,71.57075700000132,0.5824827716651375,1.5318998966651738,72.15286574999482,immediate,cd_immediate,0.5794661250038189,71.20021283399547,0.5794661250038189,71.20021283399547,0.000377333999495022,0.000377333999495022,pre_reversal,left,left,71.20012758400117,0.32967166600428754,1,70.49940029199934,72.15286574999482,1.6534654579954804,main,1
10,3,5,mixed01_level3_block05,2,active,shape_present,shape_present,knz_wob.png,shape,meaningful,frequent,shape_absent,left,top,,0.24949995900533395,72.52436925000075,0.491753084002994,72.76662345899967,standard,0.14321523777345024,std.wav,0.383898042004148,72.65876683399983,0.24949995900533395,72.52436925000075,0.491753084002994,72.76662345899967,0.9500923340019654,73.22496074999799,,0.9494999590053339,73.22496179199516,0.22207187767955636,1.1715718366848902,73.44706612499431,delayed,cd_delayed,1.0110532500038971,73.28592262500024,1.0110532500038971,73.28592262500024,0.4670352079992881,,pre_reversal,left,left,72.81915237499925,0.29451808299927507,1,72.1530399589974,73.44706612499431,1.294026165996911,main,1
11,3,5,mixed01_level3_block05,3,active,shape_present,shape_present,knz_wob.png,shape,meaningful,frequent,shape_absent,left,bottom,,0.2496445830038283,73.81602074999682,0.4913419160002377,74.05771749999985,standard,0.1035772306410121,std.wav,0.3446531250010594,73.91102845899877,0.2496445830038283,73.81602074999682,0.4913419160002377,74.05771749999985,0.9505508330039447,74.51692591699975,,0.9496445830038283,74.51692687499599,0.8337016269360125,1.7833462099398407,75.34982529199624,none,cd_none,,,,,,,pre_reversal,left,left,74.20913029199437,0.39281374999700347,1,73.44721412500076,75.34982529199624,1.9026111669954844,main,1
12,3,5,mixed01_level3_block05,4,active,shape_present,shape_present,knz_wob.png,shape,meaningful,frequent,shape_absent,left,top,,0.2419736660012859,75.70858695900097,0.49106350000511156,75.957676041995,standard,0.18075486487835224,std.wav,0.4211542500052019,75.88776712500112,0.2419736660012859,75.70858695900097,0.49106350000511156,75.957676041995,0.9422623749997001,76.40887437499623,,0.9419736660012858,76.40887533399655,0.3406276806091766,1.2826013466104624,76.74948812499497,immediate,cd_immediate,0.5895758750048117,76.05618879199756,0.5895758750048117,76.05618879199756,0.0003724999987753108,0.0003724999987753108,pre_reversal,left,left,76.05611345899524,0.3472297090047505,1,75.34999216700089,76.74948812499497,1.399495957994077,main,1
13,3,5,mixed01_level3_block05,5,active,shape_present,shape_present,knz_bow.png,shape,meaningful,frequent,shape_absent,left,top,,0.24964370799716562,77.11601695900026,0.49158083299698774,77.35795374999725,standard,0.16882774423993435,std.wav,0.4095705409999937,77.27594324999518,0.24964370799716562,77.11601695900026,0.49158083299698774,77.35795374999725,0.9501985409951885,77.81657095899573,,0.9496437079971656,77.81657195899606,0.2316397378895126,1.181283445886678,78.04772216700076,immediate,cd_immediate,0.5407876659955946,77.40716045899899,0.5407876659955946,77.40716045899899,0.00036479099799180403,0.00036479099799180403,pre_reversal,left,left,77.40707620899775,0.29077916700043716,1,76.74967291699431,78.04772216700076,1.298049250006443,main,1
14,3,5,mixed01_level3_block05,6,active,shape_present,shape_present,knz_wob.png,shape,meaningful,frequent,shape_absent,left,bottom,,0.2494140829949174,78.30767524999828,0.49138249999668915,78.54964341699815,blank,,,,,0.2494140829949174,78.30767524999828,0.49138249999668915,78.54964341699815,0.9504666249995353,79.00872683399939,,0.9494140829949174,79.00872783399973,0.8721374893114102,1.8215515723063276,79.88058425000054,immediate,cd_immediate,0.6358334159958758,78.69409412499954,0.6358334159958758,78.69409412499954,0.0003297079965705052,0.0003297079965705052,pre_reversal,left,left,78.69400520899944,0.3860896250043879,1,78.04787362500065,79.88058425000054,1.8327106249998906,main,1
15,3,5,mixed01_level3_block05,7,active,shape_present,shape_present,knz_wob.png,shape,meaningful,frequent,shape_absent,left,bottom,,0.24213958399923285,80.24181541700091,0.49160104199836496,80.49127679199592,standard,0.16401821815699658,std.wav,0.4045710840000538,80.40424687499763,0.24213958399923285,80.24181541700091,0.49160104199836496,80.49127679199592,0.9430826250027167,80.94275762499456,,0.9421395839992328,80.94275870899583,0.2800736220364623,1.2222132060356952,81.2225042919963,delayed,cd_delayed,1.044331292003335,81.04400674999488,1.044331292003335,81.04400674999488,0.44923279200156685,,pre_reversal,left,left,80.5950473749981,0.35295891600253526,1,79.88071525000123,81.2225042919963,1.3417890419950709,main,1
16,3,5,mixed01_level3_block05,8,active,shape_present,shape_present,knz_wob.png,shape,meaningful,frequent,shape_absent,left,top,,0.2496558749990072,81.59103316699475,0.49127600000065286,81.832652416997,standard,-0.06454796270619448,std.wav,0.17649237500154413,81.5178694999995,0.2496558749990072,81.59103316699475,0.49127600000065286,81.832652416997,0.9498250410033506,82.29120137499558,,0.9496558749990072,82.29120237499592,0.5472230364077968,1.496878911406804,82.83922504200018,delayed,cd_delayed,0.9499117500017746,82.29128849999688,0.9499117500017746,82.29128849999688,0.34247970900469227,,pre_reversal,left,left,81.94911024999601,0.35777616599807516,1,81.22266654199484,82.83922504200018,1.6165585000053397,main,1
17,3,5,mixed01_level3_block05,9,active,shape_present,shape_present,knz_bow.png,shape,meaningful,frequent,shape_absent,left,top,,0.24920025000028545,83.20767745899502,0.49116308300290257,83.44964016699669,standard,0.11246785631948658,std.wav,0.3535196660013753,83.31199624999863,0.24920025000028545,83.20767745899502,0.49116308300290257,83.44964016699669,0.9492833330004942,83.9077597919968,,0.9492002500002854,83.90776079199713,0.705521498391481,1.6547217483917664,84.61329174999992,delayed,cd_delayed,0.9493873750034254,83.90786520899564,0.9493873750034254,83.90786520899564,0.3866813339991495,,pre_reversal,left,left,83.52146591700148,0.31350579100399045,1,82.83936941700085,84.61329174999992,1.7739223329990637,main,1
18,3,5,mixed01_level3_block05,10,active,shape_present,shape_present,knz_bow.png,shape,meaningful,frequent,shape_absent,left,top,,0.24207729200134054,84.97529729199596,0.4913604169996688,85.22458033399744,standard,-0.11625154764424998,std.wav,0.12481062499864493,84.85803058400052,0.24207729200134054,84.97529729199596,0.4913604169996688,85.22458033399744,0.9429191249946598,85.67613891699875,,0.9420772920013405,85.67614033399877,0.8381809609334006,1.780258252934741,86.51375241699861,immediate,cd_immediate,0.3938184579965309,85.1270382090006,0.3938184579965309,85.1270382090006,0.0003635829998529516,0.0003635829998529516,pre_reversal,left,left,85.12695795900072,0.15137758299533743,1,84.61345558399626,86.51375241699861,1.9002968330023577,main,1
19,3,5,mixed01_level3_block05,11,active,shape_present,face_present,fpa19.png,face,meaningful,rare,shape_absent,right,top,,0.24925974999496248,86.88265029199829,0.49127820799913025,87.12466866699833,standard,-0.19146676951145825,std.wav,0.04859829099586932,86.6819886250014,0.24925974999496248,86.88265029199829,0.49127820799913025,87.12466866699833,0.9497867499958375,87.58317637499567,,0.9492597499949624,87.58317741700012,0.2789651419868629,1.3250117745771757,87.95942670899967,delayed,cd_delayed,1.3208393749955576,87.9542294999992,1.3208393749955576,87.9542294999992,,,pre_reversal,left,,,,0,86.51392837499588,87.95942670899967,1.445498334003787,main,1
20,3,5,mixed01_level3_block05,12,active,shape_present,face_absent,faa12.png,face,ambiguous,rare,shape_absent,right,top,,0.24184950000199024,88.3248612919997,0.49161829199874774,88.57462983399455,standard,-0.1011805912815042,std.wav,0.13931791699724272,88.22232987499592,0.24184950000199024,88.3248612919997,0.49161829199874774,88.57462983399455,0.9419641249987762,89.02497533399583,,0.9418495000019902,89.02497641700029,0.7975468079934747,1.7393963079954649,89.82306587499625,immediate,cd_immediate,,,,,,,pre_reversal,right,,,,0,87.95957637499669,89.82306587499625,1.8634894999995595,main,1
21,3,5,mixed01_level3_block05,13,active,shape_present,shape_present,knz_wob.png,shape,meaningful,frequent,shape_absent,left,bottom,,0.2495632080026553,90.19120458399993,0.49936520800110884,90.44100654200156,standard,0.21201167567233792,std.wav,0.4521733330038842,90.39381437499833,0.2495632080026553,90.19120458399993,0.49936520800110884,90.44100654200156,0.9505518330042833,90.8921925839968,,0.9495632080026553,90.89219362499716,0.4243657303681028,1.373928938370758,91.31659533399943,delayed,cd_delayed,0.950634375003574,90.89227562499582,0.950634375003574,90.89227562499582,0.37283354200189933,,pre_reversal,left,left,90.51972383399698,0.3282376249990193,1,89.8232215839962,91.31659533399943,1.4933737500032294,main,1
22,3,5,mixed01_level3_block05,14,active,shape_present,shape_present,knz_wob.png,shape,meaningful,frequent,shape_absent,left,top,,0.24187245900247945,91.6749028339982,0.4834008750040084,91.91643104199466,standard,0.0681678336140632,std.wav,0.3089026669986197,91.74193308399845,0.24187245900247945,91.6749028339982,0.4834008750040084,91.91643104199466,0.9427374170045368,92.37576704199455,,0.9418724590024794,92.37576812499901,0.5703862853487067,1.5122587443511861,92.94618137499492,immediate,cd_immediate,0.5733538339991355,92.00638374999835,0.5733538339991355,92.00638374999835,0.0003402919974178076,0.0003402919974178076,pre_reversal,left,left,92.00630004199775,0.3311410829992383,1,91.31674858399492,92.94618137499492,1.6294327909999993,main,1
23,3,5,mixed01_level3_block05,15,active,shape_present,face_absent,faa03.png,face,ambiguous,rare,shape_absent,right,bottom,,0.2494070409957203,93.3160257089985,0.49122124999848893,93.55783958399843,deviant,0.07494311702770823,deviant.wav,0.3154078750012559,93.38202570899739,0.2494070409957203,93.3160257089985,0.49122124999848893,93.55783958399843,0.9504554160012049,94.01707299999543,,0.9494070409957203,94.01707404199988,0.46866161308588133,1.4180686540816017,94.48529370899632,none,cd_none,,,,,,,pre_reversal,right,,,,0,92.94634608399792,94.48529370899632,1.5389476249984,main,1
24,3,5,mixed01_level3_block05,16,active,shape_present,face_present,fpa19.png,face,meaningful,rare,shape_absent,right,bottom,,0.24950483300199267,94.84936979199847,0.49124995800229954,95.09111508399656,standard,0.22446060327984696,std.wav,0.4654487920051906,95.06531374999759,0.24950483300199267,94.84936979199847,0.49124995800229954,95.09111508399656,0.9499623750016326,95.54982687499432,,0.9495048330019926,95.54982791699877,0.6105962459937151,1.5601010789957077,96.16031533399655,immediate,cd_immediate,,,,,,,pre_reversal,left,,,,0,94.48547991699888,96.16031533399655,1.6748354169976665,main,1
25,3,5,mixed01_level3_block05,17,active,shape_present,shape_present,knz_wob.png,shape,meaningful,frequent,shape_absent,left,top,,0.2497489170054905,96.53309420900041,0.4916573750015232,96.77500195899484,standard,-0.12539091858269724,std.wav,0.11543491700285813,96.3987795840003,0.2497489170054905,96.53309420900041,0.4916573750015232,96.77500195899484,0.9499132090058993,97.2332575420005,,0.9497489170054905,97.23325879199547,0.4005985038797843,1.3503474208852748,97.63437287499983,none,cd_none,,,,,,,pre_reversal,left,left,97.00908216699463,0.4753421249988605,1,96.1604730839972,97.63437287499983,1.4738997910026228,main,1
26,3,5,mixed01_level3_block05,18,active,shape_present,shape_present,knz_wob.png,shape,meaningful,frequent,shape_absent,left,bottom,,0.24175379200460156,97.99139612499857,0.4831252920048428,98.23276729200006,standard,0.1705514521563759,std.wav,0.4114560000016354,98.16109837499971,0.24175379200460156,97.99139612499857,0.4831252920048428,98.23276729200006,0.9422782500041649,98.69191995899746,,0.9417537920046015,98.69192108399875,0.26527802353266533,1.2070318155372668,98.95751754199591,delayed,cd_delayed,1.028361374999804,98.77800325000135,1.028361374999804,98.77800325000135,0.44651695799984736,,pre_reversal,left,left,98.33178454199515,0.34009062499535503,1,97.63454283399915,98.95751754199591,1.3229747079967638,main,1
27,3,5,mixed01_level3_block05,19,active,shape_present,shape_present,knz_wob.png,shape,meaningful,frequent,shape_absent,left,top,,0.24998154099739622,99.3246652089947,0.4917257079941919,99.56640862499626,standard,0.030672314914021115,std.wav,0.271334790995752,99.34601774999464,0.24998154099739622,99.3246652089947,0.4917257079941919,99.56640862499626,0.9508368329989025,100.02551924999716,,0.9499815409973962,100.02555608400144,0.29812974703742,1.2481112880348162,100.32287583399739,delayed,cd_delayed,0.9788649159963825,100.05354845900001,0.9788649159963825,100.05354845900001,0.3872505409963196,,pre_reversal,left,left,99.66659145899757,0.34163283400266664,1,98.95767691699439,100.32287583399739,1.3651989170029992,main,1
28,3,5,mixed01_level3_block05,20,active,shape_present,shape_present,knz_bow.png,shape,meaningful,frequent,shape_absent,left,bottom,,0.24976391699601663,100.58298908399593,0.49975870799971744,100.8329842499952,blank,,,,,0.24976391699601663,100.58298908399593,0.49975870799971744,100.8329842499952,0.9507169169955887,101.28394137499708,,0.9497639169960166,101.2839423339974,0.6439338865127544,1.593697803508771,101.9278328750006,none,cd_none,,,,,,,pre_reversal,left,,,,0,100.32303916700039,101.9278328750006,1.6047937080002157,main,1
29,3,5,mixed01_level3_block05,21,baseline,shape_present,,,,,baseline,shape_absent,,,,,,,,blank,,,,,,,,,,,101.93297962499491,,,1.0567688496459753,,,,,,,,,,,,,,,,,101.92832995899516,102.98981008400006,1.0614801250048913,main,1
30,3,5,mixed01_level3_block05,22,baseline,shape_present,,,,,baseline,shape_absent,,,,,,,,blank,,,,,,,,,,,102.99190358399937,,,1.2093977431134109,,,,,,,,,,,,,,,,,102.98993350000092,104.20135829199717,1.2114247919962509,main,1
31,3,5,mixed01_level3_block05,23,baseline,shape_present,,,,,baseline,shape_absent,,,,,,,,blank,,,,,,,,,,,104.20825229199545,,,1.4475730635392763,,,,,,,,,,,,,,,,,104.20147062499746,105.65584187499917,1.4543712500017136,main,1
32,3,4,mixed02_level3_block04,1,active,face_present,face_present,fpa14.png,face,meaningful,frequent,shape_absent,right,top,,0.24967520799691556,106.02435587500077,0.49994370799686294,106.27462391700101,standard,-0.223605950757453,std.wav,0.0174317080018227,105.79211208399647,0.24967520799691556,106.02435587500077,0.49994370799686294,106.27462391700101,0.9504753750006785,106.72515516699787,,0.9496752079969155,106.72515624999505,0.5649457451098175,1.514620953106733,107.2896129169967,delayed,cd_delayed,0.9505749160016421,106.72525520899944,0.9505749160016421,106.72525520899944,0.5646322910033632,,pre_reversal,left,left,106.16093258399633,0.13626741700136336,1,105.65597695899487,107.2896129169967,1.6336359580018325,main,2
33,3,4,mixed02_level3_block04,2,active,face_present,face_present,fpa30.png,face,meaningful,frequent,shape_absent,right,top,,0.2500278329971479,107.65803441699973,0.4914795829972718,107.8994859999948,standard,-0.18577088505233952,std.wav,0.054649375000735745,107.46265562500048,0.2500278329971479,107.65803441699973,0.4914795829972718,107.8994859999948,0.9506472919965745,108.35865362500044,,0.9500278329971479,108.35865470899444,0.6189742610510071,1.5690020940481548,108.97787233399868,delayed,cd_delayed,1.3984583329947782,108.80646449999767,1.3984583329947782,108.80646449999767,,,pre_reversal,left,,,,0,107.2897723749993,108.97787233399868,1.6880999589993735,main,2
34,3,4,mixed02_level3_block04,3,active,face_present,face_present,fpa16.png,face,meaningful,frequent,shape_absent,right,top,,0.24963937499705935,109.34936529200058,0.49188008299825015,109.5916060419986,deviant,-0.03298282689473481,deviant.wav,0.20761349999520462,109.3073393339946,0.24963937499705935,109.34936529200058,0.49188008299825015,109.5916060419986,0.9503684999945108,110.0500936669996,,0.9496393749970593,110.05009470899677,0.6029910338891196,1.5526304088861789,110.65281941699504,immediate,cd_immediate,,,,,,,pre_reversal,left,,,,0,108.97801629199967,110.65281941699504,1.6748031249953783,main,2
35,3,4,mixed02_level3_block04,4,active,face_present,face_present,fpa19.png,face,meaningful,frequent,shape_absent,right,bottom,,0.2419578749977518,111.0163434999995,0.48339354200288653,111.2577788339986,standard,0.23202667097627883,std.wav,0.4728128330025356,111.24719766699855,0.2419578749977518,111.0163434999995,0.48339354200288653,111.2577788339986,0.9420532080039266,111.71643787499488,,0.9419578749977517,111.71643891699932,0.8961901852276621,1.8381480602254139,112.61302391700156,none,cd_none,,,,,,,pre_reversal,left,,,,0,110.65299570899515,112.61302391700156,1.9600282080064062,main,2
36,3,4,mixed02_level3_block04,5,active,face_present,face_present,fpa10.png,face,meaningful,frequent,shape_absent,right,top,,0.24188683399552247,112.97514579199924,0.49107845899561653,113.22433699999965,standard,0.058497520963619265,std.wav,0.2994839589955518,113.03274249999959,0.24188683399552247,112.97514579199924,0.49107845899561653,113.22433699999965,0.9420469169999706,113.67530508399796,,0.9418868339955224,113.6753060839983,0.5530109960675518,1.4948978300630742,114.22849962499458,delayed,cd_delayed,1.3247554999979911,114.05801408399566,1.3247554999979911,114.05801408399566,,,pre_reversal,left,,,,0,112.61320716699993,114.22849962499458,1.6152924579946557,main,2
37,3,4,mixed02_level3_block04,6,active,face_present,face_present,fpa27.png,face,meaningful,frequent,shape_absent,right,top,,0.24963533299887786,114.59934870899451,0.49125316600111546,114.84096633399895,standard,0.025618150132669548,std.wav,0.2666684579962748,114.61638174999825,0.24963533299887786,114.59934870899451,0.49125316600111546,114.84096633399895,0.9498320829952718,115.29954466699564,,0.9496353329988778,115.29954566699598,0.7065905142247237,1.6562258472236016,116.00686783399578,none,cd_none,,,,,,,pre_reversal,left,,,,0,114.22866795899608,116.00686783399578,1.7781998749997001,main,2
38,3,4,mixed02_level3_block04,7,active,face_present,face_present,fpa04.png,face,meaningful,frequent,shape_absent,right,bottom,,0.24962141599826282,116.37437749999663,0.4998542079993058,116.62460995899892,standard,0.15336750717844255,std.wav,0.39370449999842094,116.51846045899583,0.24962141599826282,116.37437749999663,0.4998542079993058,116.62460995899892,0.9504881249958999,117.075243416999,,0.9496214159982628,117.07524454200029,0.5884351990017256,1.5380566149999884,117.66378970899677,immediate,cd_immediate,,,,,,,pre_reversal,left,,,,0,116.00707245899684,117.66378970899677,1.6567172499999288,main,2
39,3,4,mixed02_level3_block04,8,active,face_present,face_present,fpa07.png,face,meaningful,frequent,shape_absent,right,top,,0.2498016669997014,118.03302212499693,0.49147808300040197,118.27469841700076,standard,-0.19311111986375257,std.wav,0.04713662499852944,117.83035699999891,0.2498016669997014,118.03302212499693,0.49147808300040197,118.27469841700076,0.9507830829970771,118.73400283399678,,0.9498016669997014,118.73400391700125,0.4838126320434751,1.4336142990431764,119.2176029589973,immediate,cd_immediate,,,,,,,pre_reversal,left,,,,0,117.66398154199851,119.2176029589973,1.5536214169987943,main,2
40,3,4,mixed02_level3_block04,9,active,face_present,face_present,fpa30.png,face,meaningful,frequent,shape_absent,right,top,,0.24183549999725074,119.57514929199533,0.491345916998398,119.82465983399743,standard,0.03515796178169289,std.wav,0.27587641699938104,119.60918954199587,0.24183549999725074,119.57514929199533,0.491345916998398,119.82465983399743,0.9419668749978882,120.27527995899436,,0.9418354999972507,120.27528108399565,0.6347418308637942,1.576577330861045,120.91073566699924,immediate,cd_immediate,,,,,,,pre_reversal,left,,,,0,119.21776749999844,120.91073566699924,1.6929681670007994,main,2
41,3,4,mixed02_level3_block04,10,active,face_present,face_present,fpa18.png,face,meaningful,frequent,shape_absent,right,bottom,,0.24935874999937369,121.28268699999899,0.49101599999994505,121.52434399999765,standard,0.20965274547378304,std.wav,0.45002954099618364,121.48335733400017,0.24935874999937369,121.28268699999899,0.49101599999994505,121.52434399999765,0.9498346249965834,121.98316195899679,,0.9493587499993736,121.98316299999715,0.5149771375297592,1.4643358875291328,122.49816779200046,delayed,cd_delayed,1.3419378329999745,122.37526570900081,1.3419378329999745,122.37526570900081,,,pre_reversal,left,,,,0,120.9108941250015,122.49816779200046,1.5872736669989536,main,2
42,3,4,mixed02_level3_block04,11,active,face_present,face_present,fpa04.png,face,meaningful,frequent,shape_absent,right,bottom,,0.2420067499988363,122.7502406249987,0.48340491599810775,122.9916386670011,blank,,,,,0.2420067499988363,122.7502406249987,0.48340491599810775,122.9916386670011,0.942448499998136,123.45068166699639,,0.9420067499988363,123.45068324999738,0.3048167180031566,1.2468234680019927,123.75576666699635,none,cd_none,,,,,,,pre_reversal,left,,,,0,122.49832229199819,123.75576666699635,1.2574443749981583,main,2
43,3,4,mixed02_level3_block04,12,active,face_present,face_present,fpa26.png,face,meaningful,frequent,shape_absent,right,top,,0.24965487499866867,124.12439108399849,0.4917091659954167,124.36644545899617,standard,-0.13814401414043864,std.wav,0.10225337500014575,123.97698975000094,0.24965487499866867,124.12439108399849,0.4917091659954167,124.36644545899617,0.9500090410001576,124.8247445839952,,0.9496548749986686,124.82474574999651,0.2945263803492742,1.2597651396639442,125.13455512499786,delayed,cd_delayed,1.2556394999992335,125.1303753339962,1.2556394999992335,125.1303753339962,,,pre_reversal,left,,,,0,123.75589524999668,125.13455512499786,1.3786598750011763,main,2
44,3,4,mixed02_level3_block04,13,active,face_present,face_absent,faa26.png,face,ambiguous,rare,shape_absent,left,bottom,,0.25002525000309106,125.50802820899844,0.4999230419998639,125.75792545899458,standard,-0.052231334652137695,std.wav,0.18850625000050059,125.44650862499839,0.25002525000309106,125.50802820899844,0.4999230419998639,125.75792545899458,0.9500530000004801,126.20805475000088,,0.950025250003091,126.208055916999,0.3768217853714646,1.3268470353745556,126.58533624999836,immediate,cd_immediate,0.5855870840023272,125.84358904200053,0.5855870840023272,125.84358904200053,0.00037029200029792264,0.00037029200029792264,pre_reversal,right,left,125.84349679199659,0.3351915419989382,0,125.13469979199726,126.58533624999836,1.4506364580010995,main,2
45,3,4,mixed02_level3_block04,14,active,face_present,shape_present,knz_wob.png,shape,meaningful,rare,shape_absent,left,bottom,,0.24248866700509097,126.94188937499712,0.4877705420003622,127.1871713340006,standard,0.001915386606819669,std.wav,0.24254891700547887,126.94194900000002,0.24248866700509097,126.94188937499712,0.4877705420003622,127.1871713340006,0.9425992500036955,127.64199912500044,,0.9424886670050909,127.6420001669976,0.7697713677122022,1.7122600347172932,128.4118450419992,delayed,cd_delayed,0.9994658340001479,127.69886604199564,0.9994658340001479,127.69886604199564,0.4145914999971865,,pre_reversal,left,left,127.28455099999701,0.34238566699787043,1,126.58552749999944,128.4118450419992,1.8263175419997424,main,2
46,3,4,mixed02_level3_block04,15,active,face_present,face_present,fpa25.png,face,meaningful,frequent,shape_absent,right,bottom,,0.24968412500311388,128.7784855419959,0.49157287499838276,129.0203746249972,standard,-0.07589466686785223,std.wav,0.16448441700049443,128.69328562499868,0.24968412500311388,128.7784855419959,0.49157287499838276,129.0203746249972,0.9505634590022964,129.47936458399636,,0.9496841250031138,129.47936599999957,0.3519004519488998,1.361951319902681,129.89158250000037,delayed,cd_delayed,1.3576533750019735,129.88645454200014,1.3576533750019735,129.88645454200014,,,pre_reversal,left,,,,0,128.41200208399823,129.89158250000037,1.4795804160021362,main,2
47,3,4,mixed02_level3_block04,16,active,face_present,face_present,fpa23.png,face,meaningful,frequent,shape_absent,right,top,,0.2418655830042553,130.14536137499817,0.48378233300172724,130.3872780419988,blank,,,,,0.2418655830042553,130.14536137499817,0.48378233300172724,130.3872780419988,0.9420495000013034,130.8455445840009,,0.9418655830042553,130.84554566699808,0.4551409831760006,1.3970065661802558,131.3007164169976,immediate,cd_immediate,,,,,,,pre_reversal,left,,,,0,129.89172387500003,131.3007164169976,1.408992541997577,main,2
48,3,4,mixed02_level3_block04,17,active,face_present,shape_present,knz_bow.png,shape,meaningful,rare,shape_absent,left,top,,0.2419331660057651,131.66242383400095,0.4835837909995462,131.90407425000012,standard,-0.06157083398712965,std.wav,0.17947045800246997,131.59996104199672,0.2419331660057651,131.66242383400095,0.4835837909995462,131.90407425000012,0.9426973330046167,132.36318720899726,,0.941933166005765,132.36318824999762,0.302730635095492,1.244663801101257,132.6657456249959,immediate,cd_immediate,0.6459223749989178,132.0664127919954,0.6459223749989178,132.0664127919954,0.0003717499930644408,0.0003717499930644408,pre_reversal,left,left,132.066321667,0.4036174590000883,1,131.3008326249983,132.6657456249959,1.364912999997614,main,2
49,3,4,mixed02_level3_block04,18,active,face_present,face_present,fpa10.png,face,meaningful,frequent,shape_absent,right,bottom,,0.2494582920044195,133.03683108399855,0.49128104200644884,133.27865370899963,deviant,0.17417489657660484,deviant.wav,0.41434516700246604,133.20171737499913,0.2494582920044195,133.03683108399855,0.49128104200644884,133.27865370899963,0.9498873750053463,133.73725983400072,,0.9494582920044194,133.7372613339976,0.3672326510762695,1.316690943080689,134.10408670899778,none,cd_none,,,,,,,pre_reversal,left,,,,0,132.66590987499512,134.10408670899778,1.438176834002661,main,2
50,3,4,mixed02_level3_block04,19,active,face_present,face_present,fpa08.png,face,meaningful,frequent,shape_absent,right,bottom,,0.24960524999914924,134.4701942920001,0.4918017919990234,134.71239033399615,standard,0.013091652893290617,std.wav,0.25397958300163737,134.47456791700097,0.24960524999914924,134.4701942920001,0.4918017919990234,134.71239033399615,0.9504281249974156,135.1710161250012,,0.9496052499991492,135.17101712500153,0.76291863641171,1.7125238864108592,135.93401491699478,delayed,cd_delayed,1.2582015419975505,135.478789959001,1.2582015419975505,135.478789959001,,,pre_reversal,left,,,,0,134.1042575419997,135.93401491699478,1.829757374995097,main,2
51,3,4,mixed02_level3_block04,20,active,face_present,face_absent,faa24.png,face,ambiguous,rare,shape_absent,left,top,,0.24963375000515953,136.30380091699772,0.49931862499943236,136.5534854590005,standard,0.11286879771605118,std.wav,0.3534267909999471,136.40759383399563,0.24963375000515953,136.30380091699772,0.49931862499943236,136.5534854590005,0.9502683750033611,137.0044350419994,,0.9496337500051595,137.00443654199626,0.2741139841579473,1.2237477341631067,137.2788851669975,immediate,cd_immediate,0.5481501250033034,136.60231658400153,0.5481501250033034,136.60231658400153,0.0003542499980540015,0.0003542499980540015,pre_reversal,right,left,136.60223545899498,0.2981621250000899,0,135.93419345899747,137.2788851669975,1.3446917080000276,main,2
52,3,4,mixed02_level3_block04,21,baseline,face_present,,,,,baseline,shape_absent,,,,,,,,blank,,,,,,,,,,,137.28684966699802,,,1.2884065621819425,,,,,,,,,,,,,,,,,137.2790303340007,138.57529516700015,1.2962648329994408,main,2
53,3,4,mixed02_level3_block04,22,baseline,face_present,,,,,baseline,shape_absent,,,,,,,,blank,,,,,,,,,,,138.57869870899594,,,1.226436614485568,,,,,,,,,,,,,,,,,138.57538824999938,139.80517045899614,1.2297822089967667,main,2
54,3,4,mixed02_level3_block04,23,baseline,face_present,,,,,baseline,shape_absent,,,,,,,,blank,,,,,,,,,,,139.8246624999956,,,1.447385350135257,,,,,,,,,,,,,,,,,139.805270208999,141.27206212499732,1.4667919159983285,main,2
55,2,10,mixed03_level2_block10,1,active,shape_present,shape_present,knz_wob.png,shape,meaningful,frequent,face_absent,left,bottom,,0.24193820799700916,191.0915871249963,0.4913297499952023,191.3409782499948,deviant,0.04007467820173466,deviant.wav,0.2806027080005151,191.13025083400134,0.24193820799700916,191.0915871249963,0.4913297499952023,191.3409782499948,0.9426398329960648,191.79228758400131,,0.9419382079970091,191.79228858399438,0.7853037986307339,1.727242006627743,192.57714070899965,delayed,cd_delayed,0.9685002080004779,191.8181487089969,0.9685002080004779,191.8181487089969,0.4154362920016865,,,left,left,191.40299416700145,0.3111257080017822,1,190.73206995899818,192.57714070899965,1.8450707500014687,main,3
56,2,10,mixed03_level2_block10,2,active,shape_present,face_present,fpa08.png,face,meaningful,rare,face_absent,right,bottom,,0.249348541998188,192.94929958399734,0.49142420899443096,193.19137433399737,standard,0.19256747630222226,std.wav,0.43273308399511734,193.13268324999808,0.249348541998188,192.94929958399734,0.49142420899443096,193.19137433399737,0.9503011669949046,193.65025158399658,,0.949348541998188,193.65025308400072,0.23479021641864595,1.2695359924427199,193.97000045899767,delayed,cd_delayed,1.2648987089996808,193.96484937499918,1.2648987089996808,193.96484937499918,,,,right,,,,0,192.5775053749967,193.97000045899767,1.3924950840009842,main,3
57,2,10,mixed03_level2_block10,3,active,shape_present,shape_present,knz_bow.png,shape,meaningful,frequent,face_absent,left,bottom,,0.25836729200091213,194.345456791998,0.5041498339996906,194.59123908399488,standard,-0.021618503415402474,std.wav,0.21927687500283355,194.30636612499802,0.25836729200091213,194.345456791998,0.5041498339996906,194.59123908399488,0.9584044590010308,195.04549316699558,,0.9583672920009121,195.04549420900003,0.3577337601953138,1.3161010521962258,195.40369720899616,immediate,cd_immediate,0.5697891250019893,194.6568782089962,0.5697891250019893,194.6568782089962,0.00037975000304868445,0.00037975000304868445,,left,left,194.65680150000117,0.3110420829980285,1,193.9701574999999,195.40369720899616,1.4335397089962498,main,3
58,2,10,mixed03_level2_block10,4,active,shape_present,shape_present,knz_bow.png,shape,meaningful,frequent,face_absent,left,bottom,,0.24567175000265706,195.6535198749989,0.4879079169986653,195.89575554199837,blank,,,,,0.24567175000265706,195.6535198749989,0.4879079169986653,195.89575554199837,0.9460726249963045,196.35391966699535,,0.945671750002657,196.35392074999982,0.6390421388649858,1.5847138888676429,196.99315929199656,immediate,cd_immediate,0.5972173330010264,196.00506483399658,0.5972173330010264,196.00506483399658,0.00037637499917764217,0.00037637499917764217,,left,left,196.00497262499994,0.3511692079991917,1,195.40386099999887,196.99315929199656,1.589298291997693,main,3
59,2,10,mixed03_level2_block10,5,active,shape_present,face_present,fpa23.png,face,meaningful,rare,face_absent,right,top,,0.24965716699807672,197.3618064589973,0.49189183399721514,197.60404074999678,standard,-0.12483768152369401,std.wav,0.11546937499952037,197.22761820899905,0.24965716699807672,197.3618064589973,0.49189183399721514,197.60404074999678,0.950233916999423,198.06238229199516,,0.9496571669980767,198.06238337499963,0.4797647055258889,1.4294218725239656,198.5422690839987,delayed,cd_delayed,1.2747842499957187,198.38693341700127,1.2747842499957187,198.38693341700127,,,,right,,,,0,196.99331170899677,198.5422690839987,1.548957375001919,main,3
60,2,10,mixed03_level2_block10,6,active,shape_present,shape_present,knz_bow.png,shape,meaningful,frequent,face_absent,left,bottom,,0.24971658299909905,198.91211304199533,0.4997467499997583,199.16214316699916,standard,-0.19651232749903375,std.wav,0.044469000000390224,198.70686504199693,0.24971658299909905,198.91211304199533,0.4997467499997583,199.16214316699916,0.950621083000442,199.61301620899758,,0.949716582999099,199.61301724999794,0.31825637710569527,1.2679729601047942,199.93051425000158,delayed,cd_delayed,1.1506862499954877,199.81308195900056,1.1506862499954877,199.81308195900056,0.49587237499508774,,,left,left,199.31744879199687,0.40509729200130096,1,198.54243570900144,199.93051425000158,1.3880785410001408,main,3
61,2,10,mixed03_level2_block10,7,active,shape_present,shape_present,knz_bow.png,shape,meaningful,frequent,face_absent,left,top,,0.24969874999806052,200.29512395899656,0.49180195899680257,200.5372271249944,standard,0.12145274358407343,std.wav,0.36172679199808044,200.4071516249969,0.24969874999806052,200.29512395899656,0.49180195899680257,200.5372271249944,0.9505396669992479,200.99596445899806,,0.9496987499980605,200.99596604199905,0.24643592405554815,1.1961346740536087,201.24170133399457,delayed,cd_delayed,0.9764374169972143,201.02186224999605,0.9764374169972143,201.02186224999605,0.35937224999361206,,,left,left,200.66278537499602,0.36736641700554173,1,199.93067791700014,201.24170133399457,1.3110234169944306,main,3
62,2,10,mixed03_level2_block10,8,active,shape_present,shape_present,knz_bow.png,shape,meaningful,frequent,face_absent,left,top,,0.24226433299918426,201.62076995900134,0.48364945800130954,201.86215495899523,standard,0.14650162259301802,std.wav,0.3874159159968258,201.76592120900023,0.24226433299918426,201.62076995900134,0.48364945800130954,201.86215495899523,0.9422742909955559,202.32077933399705,,0.9422643329991842,202.32078049999836,0.6204367021245253,1.5627010351237094,202.94161920899933,immediate,cd_immediate,0.6317177079981775,202.01022295899747,0.6317177079981775,202.01022295899747,0.00035208299959776923,0.00035208299959776923,,left,left,202.01015154199558,0.38910129199939547,1,201.24187029199675,202.94161920899933,1.6997489170025801,main,3
63,2,10,mixed03_level2_block10,9,active,shape_present,shape_absent,nknz_wob.png,shape,ambiguous,rare,face_absent,right,bottom,,0.24198270800116006,203.32081120899966,0.49128420800116146,203.57011266699556,standard,-0.08786956531147841,std.wav,0.15228224999736995,203.2311107919959,0.24198270800116006,203.32081120899966,0.49128420800116146,203.57011266699556,0.9420812919997843,204.02090970899735,,0.94198270800116,204.0209107499977,0.8458769428656996,1.7878596508668596,204.86722016699787,immediate,cd_immediate,0.5000801669957582,203.57890841699555,0.5000801669957582,203.57890841699555,0.00039558400021633133,0.00039558400021633133,,right,left,203.57880804199522,0.2577018749943818,0,202.94179837499541,204.86722016699787,1.925421792002453,main,3
64,2,10,mixed03_level2_block10,10,active,shape_present,shape_present,knz_wob.png,shape,meaningful,frequent,face_absent,left,top,,0.24938587499491405,205.25347262500145,0.4913893749981071,205.49547608399735,standard,-0.15334803232362715,std.wav,0.08772024999780115,205.0918068339961,0.24938587499491405,205.25347262500145,0.4913893749981071,205.49547608399735,0.950081124996359,205.95416754199687,,0.949385874994914,205.954168749995,0.256241352205506,1.20562722720042,206.21035016699898,immediate,cd_immediate,0.5348768749972805,205.53896333399462,0.5348768749972805,205.53896333399462,0.0003642919982667081,0.0003642919982667081,,left,left,205.53886466699623,0.2851267080040998,1,204.86742695899738,206.21035016699898,1.3429232080015936,main,3
65,2,10,mixed03_level2_block10,11,active,shape_present,shape_present,knz_wob.png,shape,meaningful,frequent,face_absent,left,bottom,,0.2419954159995541,206.59153716699802,0.4833958329982124,206.8329376670008,standard,-0.049723915187320555,std.wav,0.19085683300363598,206.5403987499958,0.2419954159995541,206.59153716699802,0.4833958329982124,206.8329376670008,0.9426307500034454,207.29217187500035,,0.941995415999554,207.29217295899434,0.20243404077176125,1.1444294567713154,207.49497091699595,none,cd_none,,,,,,,,left,left,206.92068141699565,0.32883158400363754,1,206.21055304200127,207.49497091699595,1.2844178749946877,main,3
66,2,10,mixed03_level2_block10,12,active,shape_present,shape_present,knz_wob.png,shape,meaningful,frequent,face_absent,left,bottom,,0.2417050410003867,207.87461274999805,0.48340154100151267,208.1163093340001,standard,-0.11416012575493148,std.wav,0.12638650000008056,207.75929399999586,0.2417050410003867,207.87461274999805,0.48340154100151267,208.1163093340001,0.9424570409973967,208.57536404200073,,0.9417050410003867,208.57536516699474,0.24401086683772807,1.1857159078381148,208.81884712499595,none,cd_none,,,,,,,,left,left,208.47359887499624,0.5987108339977567,1,207.49513399999705,208.81884712499595,1.3237131249989034,main,3
67,2,10,mixed03_level2_block10,13,active,shape_present,shape_present,knz_wob.png,shape,meaningful,frequent,face_absent,left,top,,0.24949600000400096,209.20765541699802,0.4910920830006944,209.44925137500104,standard,-0.060977606637074244,std.wav,0.17944062500464497,209.13760016699962,0.24949600000400096,209.20765541699802,0.4910920830006944,209.44925137500104,0.9504031250035041,209.90856183399592,,0.9494960000040009,209.90856287499628,0.25831437340295144,1.2078103734069523,210.16700645899982,delayed,cd_delayed,0.9504960000049323,209.90865583399864,0.9504960000049323,209.90865583399864,0.3620034580017091,,,left,left,209.54693529199722,0.33899654199922225,1,208.81901924999693,210.16700645899982,1.3479872090028948,main,3
68,2,10,mixed03_level2_block10,14,active,shape_present,shape_present,knz_wob.png,shape,meaningful,frequent,face_absent,left,top,,0.24182600000494858,210.5497545420003,0.4831327920037438,210.79106099999626,standard,0.07746320377935595,std.wav,0.31772429200646,210.62565237499803,0.24182600000494858,210.5497545420003,0.4831327920037438,210.79106099999626,0.9425715000033961,211.25049916699936,,0.9418260000049485,211.2505001669997,0.24529972468508318,1.1871257246900317,211.49505608400068,delayed,cd_delayed,0.942665250004211,211.25059312499798,0.942665250004211,211.25059312499798,0.34317216699855635,,,left,left,210.9077111250008,0.35766708300070604,1,210.16716395899857,211.49505608400068,1.3278921250021085,main,3
69,2,10,mixed03_level2_block10,15,active,shape_present,shape_present,knz_wob.png,shape,meaningful,frequent,face_absent,left,bottom,,0.24971583300066413,211.8826162089972,0.4916672079998534,212.12456729199766,standard,-0.03230875625142915,std.wav,0.2086686659968109,211.84156866699777,0.24971583300066413,211.8826162089972,0.4916672079998534,212.12456729199766,0.9500928330016905,212.58299229199474,,0.9497158330006641,212.58299333399918,0.869116631838539,1.8188324648392031,213.45204716699664,none,cd_none,,,,,,,,left,,,,0,211.49520637499518,213.45204716699664,1.9568407920014579,main,3
70,2,10,mixed03_level2_block10,16,active,shape_present,shape_present,knz_bow.png,shape,meaningful,frequent,face_absent,left,bottom,,0.24922262499603676,213.70762929199554,0.4913809999998193,213.94978745900153,blank,,,,,0.24922262499603676,213.70762929199554,0.4913809999998193,213.94978745900153,0.9498352079972392,214.40824116699514,,0.9492226249960367,214.40824229199643,0.6841637876559077,1.6333864126519444,215.0925560839969,delayed,cd_delayed,1.331039457996667,214.78944583400153,1.331039457996667,214.78944583400153,,,,left,,,,0,213.45220158399752,215.0925560839969,1.6403544999993755,main,3
71,2,10,mixed03_level2_block10,17,active,shape_present,shape_present,knz_wob.png,shape,meaningful,frequent,face_absent,left,top,,0.24966070899972692,215.48264583399578,0.49127887500071665,215.72426337499928,standard,0.13018789813047266,std.wav,0.3703759589989204,215.60336016699875,0.24966070899972692,215.48264583399578,0.49127887500071665,215.72426337499928,0.9501220419988385,216.18310641699645,,0.9496607089997269,216.18310779199965,0.7452874967406207,1.6949482057403475,216.9279988749986,immediate,cd_immediate,,,,,,,,left,,,,0,215.092698249995,216.9279988749986,1.8353006250035833,main,3
72,2,10,mixed03_level2_block10,18,active,shape_present,shape_present,knz_wob.png,shape,meaningful,frequent,face_absent,left,bottom,,0.24180433400033507,217.30835587500042,0.487221249997674,217.55377279199456,standard,0.1440211401314342,std.wav,0.38462937499571126,217.45118041699607,0.24180433400033507,217.30835587500042,0.487221249997674,217.55377279199456,0.9421127089954098,218.0086634170002,,0.941804334000335,218.0086644999974,0.8222245878518508,1.7640289218521858,218.83088312499603,none,cd_none,,,,,,,,left,,,,0,216.92816295899684,218.83088312499603,1.9027201659991988,main,3
73,2,10,mixed03_level2_block10,19,active,shape_present,shape_present,knz_bow.png,shape,meaningful,frequent,face_absent,left,top,,0.24936270900070667,219.22430787499616,0.4954219170031138,219.47036754199507,standard,0.018782974121308638,std.wav,0.2590079590008827,219.23395275000075,0.24936270900070667,219.22430787499616,0.4954219170031138,219.47036754199507,0.9494075420006993,219.92435195899452,,0.9493627090007066,219.92435304199898,0.6939868977300724,1.6433496067307791,220.61899487499613,immediate,cd_immediate,,,,,,,,left,,,,0,218.83106674999726,220.61899487499613,1.7879281249988708,main,3
74,2,10,mixed03_level2_block10,20,active,shape_present,shape_absent,nknz_wob.png,shape,ambiguous,rare,face_absent,right,top,,0.24969295800110558,221.01208529200085,0.49148054200486513,221.2538720839948,deviant,-0.10884795559035226,deviant.wav,0.13178454200533452,220.89417675000004,0.24969295800110558,221.01208529200085,0.49148054200486513,221.2538720839948,0.9503027500031749,221.7126940839953,,0.9496929580011055,221.71269512499566,0.6538811015038805,1.6035740595049859,222.36673175000033,immediate,cd_immediate,,,,,,,,right,,,,0,220.61917787499988,222.36673175000033,1.747553875000449,main,3
75,2,10,mixed03_level2_block10,21,baseline,shape_present,,,,,baseline,face_absent,,,,,,,,blank,,,,,,,,,,,222.37464499999624,,,1.1567851855666023,,,,,,,,,,,,,,,,,222.36689662499703,223.5314704170014,1.1645737920043757,main,3
76,2,10,mixed03_level2_block10,22,baseline,shape_present,,,,,baseline,face_absent,,,,,,,,blank,,,,,,,,,,,223.53433866699925,,,1.4279598234296997,,,,,,,,,,,,,,,,,223.53157112500048,224.9623431250002,1.4307719999997062,main,3
77,2,10,mixed03_level2_block10,23,baseline,shape_present,,,,,baseline,face_absent,,,,,,,,blank,,,,,,,,,,,224.96617404199787,,,1.3469456321105624,,,,,,,,,,,,,,,,,224.96245700000145,226.31313587499608,1.3506788749946281,main,3
